S,P,O1,O2,S_perf,P_perf,O1_perf,O2_perf,pos1,pos2,pos3,pos4,subject_id,trial,rt,decision_type,bonus,response,response_n,dec_OC,out_eng,dec_num_n,correct,init,age,sex,version
4,6,5,4,,,,,1,2,3,0,oep739p,1,446.69999999925494,5,0.5,,0,NA,1.5,1,0,SC,16,W,NA
4,6,5,4,,,,,1,2,3,0,oep739p,1,252.5,2,0.5,,0,2,0.5,2,0,SC,16,W,NA
2,4,4,5,,,,,0,3,1,2,oep739p,2,391,1,0.5,,0,1,-1.5,1,1,SC,16,W,NA
2,4,4,5,,,,,0,3,1,2,oep739p,2,313.6000000014901,5,-0.5,,1,NA,-3.5,2,0,SC,16,W,NA
1,5,3,2,,,,,3,0,2,1,oep739p,3,495.80000000074506,5,-0.5,,0,NA,0.5,1,0,SC,16,W,NA
1,5,3,2,,,,,3,0,2,1,oep739p,3,459.30000000074506,4,0.5,,1,2,3.5,2,1,SC,16,W,NA
5,2,5,3,,,,,1,0,2,3,oep739p,4,492.8999999985099,5,-0.5,,0,NA,-1.5,1,1,SC,16,W,NA
5,2,5,3,,,,,1,0,2,3,oep739p,4,797,1,0.5,,1,1,0.5,2,1,SC,16,W,NA
3,4,4,3,,,,,2,0,3,1,oep739p,5,490,2,0.5,,0,2,0.5,1,0,SC,16,W,NA
3,4,4,3,,,,,2,0,3,1,oep739p,5,364.9000000022352,5,0.5,,1,NA,0.5,2,1,SC,16,W,NA
4,5,4,5,,,,,0,1,3,2,oep739p,6,588.4000000022352,4,-0.5,,0,2,-0.5,1,1,SC,16,W,NA
4,5,4,5,,,,,0,1,3,2,oep739p,6,314,2,-0.5,,1,2,-1.5,2,0,SC,16,W,NA
5,4,3,3,,,,,0,1,2,3,oep739p,7,653,5,-0.5,,0,NA,2.5,1,0,SC,16,W,NA
5,4,3,3,,,,,0,1,2,3,oep739p,7,251.39999999850988,4,-0.5,,1,2,0.5,2,1,SC,16,W,NA
5,4,3,5,,,,,1,3,2,0,oep739p,8,3322.89999999851,1,-0.5,,0,1,1.5,1,0,SC,16,W,NA
5,4,3,5,,,,,1,3,2,0,oep739p,8,1792.9000000022352,2,-0.5,,0,2,-0.5,2,1,SC,16,W,NA
4,4,4,4,,,,,2,1,0,3,oep739p,9,496.69999999925494,2,0.5,,0,2,0.5,1,0,SC,16,W,NA
4,4,4,4,,,,,2,1,0,3,oep739p,9,942.6999999992549,1,-0.5,,1,1,-0.5,2,0,SC,16,W,NA
4,5,2,4,,,,,0,2,1,3,oep739p,10,89.5,3,0.5,,0,1,3.5,1,0,SC,16,W,NA
4,5,2,4,,,,,0,2,1,3,oep739p,10,429.6000000014901,5,-0.5,,1,NA,2.5,2,1,SC,16,W,NA
3,4,5,2,,,,,3,1,0,2,oep739p,11,839.1000000014901,1,0.5,,1,1,-1.5,1,0,SC,16,W,NA
3,4,5,2,,,,,3,1,0,2,oep739p,11,380.69999999925494,3,0.5,,0,1,-0.5,2,1,SC,16,W,NA
3,2,5,6,,,,,3,1,2,0,oep739p,12,3784.900000002235,2,0.5,,0,2,-2.5,1,1,SC,16,W,NA
3,2,5,6,,,,,3,1,2,0,oep739p,12,254.40000000223517,4,-0.5,,1,2,-4.5,2,0,SC,16,W,NA
3,6,3,4,,,,,2,1,3,0,oep739p,13,375.5,4,-0.5,,0,2,1.5,1,0,SC,16,W,NA
3,6,3,4,,,,,2,1,3,0,oep739p,13,301,5,-0.5,,1,NA,1.5,2,1,SC,16,W,NA
3,4,1,2,,,,,0,2,3,1,oep739p,14,383,5,0.5,,0,NA,4.5,1,0,SC,16,W,NA
3,4,1,2,,,,,0,2,3,1,oep739p,14,303.80000000074506,1,0.5,,1,1,2.5,2,1,SC,16,W,NA
4,4,2,5,,,,,3,0,1,2,oep739p,15,631.5,5,-0.5,,1,NA,0.5,1,1,SC,16,W,NA
4,4,2,5,,,,,3,0,1,2,oep739p,15,608.5999999977648,3,-0.5,,1,1,1.5,2,1,SC,16,W,NA
4,4,1,4,,,,,1,2,0,3,oep739p,16,425,3,0.5,,0,1,3.5,1,0,SC,16,W,NA
4,4,1,4,,,,,1,2,0,3,oep739p,16,366.29999999701977,4,0.5,,1,2,0.5,2,1,SC,16,W,NA
2,6,5,2,,,,,1,0,3,2,oep739p,17,378.3999999985099,1,-0.5,,1,1,-3.5,1,0,SC,16,W,NA
2,6,5,2,,,,,1,0,3,2,oep739p,17,153.19999999925494,5,0.5,,0,NA,1.5,2,0,SC,16,W,NA
4,5,3,4,,,,,1,3,0,2,oep739p,18,362,2,0.5,,0,2,0.5,1,0,SC,16,W,NA
4,5,3,4,,,,,1,3,0,2,oep739p,18,218.19999999925494,3,-0.5,,1,1,1.5,2,1,SC,16,W,NA
4,5,5,4,,,,,2,3,0,1,oep739p,19,386.80000000074506,3,0.5,,1,1,0.5,1,1,SC,16,W,NA
4,5,5,4,,,,,2,3,0,1,oep739p,19,269.30000000074506,5,0.5,,0,NA,0.5,2,0,SC,16,W,NA
4,5,4,6,,,,,2,3,1,0,oep739p,20,361.9000000022352,4,0.5,,1,2,-0.5,1,0,SC,16,W,NA
4,5,4,6,,,,,2,3,1,0,oep739p,20,493.5,5,-0.5,,0,NA,-1.5,2,1,SC,16,W,NA
3,4,5,3,,,,,3,2,0,1,oep739p,21,283.0999999977648,3,0.5,,0,1,-0.5,1,1,SC,16,W,NA
3,4,5,3,,,,,3,2,0,1,oep739p,21,760.8000000007451,5,0.5,,0,NA,-0.5,2,1,SC,16,W,NA
3,4,2,5,,,,,3,2,1,0,oep739p,22,1686,3,0.5,,0,1,2.5,1,0,SC,16,W,NA
3,4,2,5,,,,,3,2,1,0,oep739p,22,750.4000000022352,1,0.5,,0,1,1.5,2,0,SC,16,W,NA
1,3,4,4,,,,,0,3,2,1,oep739p,23,40.900000002235174,5,0.5,,1,NA,-3.5,1,0,SC,16,W,NA
1,3,4,4,,,,,0,3,2,1,oep739p,23,67.5,2,0.5,,0,2,-2.5,2,1,SC,16,W,NA
3,2,2,2,,,,,2,0,1,3,oep739p,24,3962.2999999970198,1,-0.5,,1,1,0.5,1,1,SC,16,W,NA
3,2,2,2,,,,,2,0,1,3,oep739p,24,1528.5,5,0.5,,0,NA,1.5,2,0,SC,16,W,NA
3,5,3,0,,,,,1,2,0,3,oep739p,25,622.8999999985099,5,0.5,,1,NA,5.5,1,1,SC,16,W,NA
3,5,3,0,,,,,1,2,0,3,oep739p,25,410.5999999977648,4,0.5,,0,2,5.5,2,0,SC,16,W,NA
4,5,5,5,,,,,1,3,2,0,oep739p,26,1449.800000000745,1,-0.5,,1,1,-1.5,1,0,SC,16,W,NA
4,5,5,5,,,,,1,3,2,0,oep739p,26,559.2000000029802,4,-0.5,,0,2,-0.5,2,1,SC,16,W,NA
6,2,5,4,,,,,0,1,2,3,oep739p,27,457.79999999701977,3,0.5,,1,1,-2.5,1,0,SC,16,W,NA
6,2,5,4,,,,,0,1,2,3,oep739p,27,299.1000000014901,2,-0.5,,0,2,1.5,2,0,SC,16,W,NA
4,2,6,2,,,,,1,0,3,2,oep739p,28,465.9000000022352,5,-0.5,,0,NA,-2.5,1,1,SC,16,W,NA
4,2,6,2,,,,,1,0,3,2,oep739p,28,16.600000001490116,2,0.5,,1,2,2.5,2,1,SC,16,W,NA
2,4,2,3,,,,,0,3,1,2,oep739p,29,367.6000000014901,5,0.5,,1,NA,1.5,1,1,SC,16,W,NA
2,4,2,3,,,,,0,3,1,2,oep739p,29,255.5,1,0.5,,0,1,0.5,2,0,SC,16,W,NA
3,3,5,3,,,,,2,3,1,0,oep739p,30,169,5,0.5,,0,NA,-1.5,1,1,SC,16,W,NA
3,3,5,3,,,,,2,3,1,0,oep739p,30,2092.199999999255,3,-0.5,,0,1,-2.5,2,1,SC,16,W,NA
3,3,4,4,,,,,2,1,3,0,oep739p,31,858.8999999985099,2,-0.5,,0,2,-1.5,1,1,SC,16,W,NA
3,3,4,4,,,,,2,1,3,0,oep739p,31,623.6999999992549,5,-0.5,,1,NA,-2.5,2,0,SC,16,W,NA
2,5,5,3,,,,,1,3,0,2,oep739p,32,462.1000000014901,4,0.5,,0,2,2.5,1,0,SC,16,W,NA
2,5,5,3,,,,,1,3,0,2,oep739p,32,289.19999999925494,1,-0.5,,1,1,-3.5,2,0,SC,16,W,NA
5,5,5,4,,,,,1,0,2,3,oep739p,33,438.20000000298023,4,0.5,,1,2,1.5,1,1,SC,16,W,NA
5,5,5,4,,,,,1,0,2,3,oep739p,33,266.3999999985099,5,0.5,,0,NA,1.5,2,0,SC,16,W,NA
3,5,5,5,,,,,0,1,3,2,oep739p,34,489.8999999985099,2,-0.5,,1,2,-2.5,1,0,SC,16,W,NA
3,5,5,5,,,,,0,1,3,2,oep739p,34,314.80000000074506,5,-0.5,,0,NA,-2.5,2,1,SC,16,W,NA
4,5,4,4,,,,,0,3,2,1,oep739p,35,1100,4,-0.5,,0,2,0.5,1,0,SC,16,W,NA
4,5,4,4,,,,,0,3,2,1,oep739p,35,318.0999999977648,3,0.5,,1,1,1.5,2,1,SC,16,W,NA
2,6,3,4,,,,,0,2,3,1,oep739p,36,1591.199999999255,5,-0.5,,0,NA,0.5,1,0,SC,16,W,NA
2,6,3,4,,,,,0,2,3,1,oep739p,36,381,3,-0.5,,0,1,2.5,2,0,SC,16,W,NA
5,4,4,4,,,,,2,1,0,3,oep739p,37,329.5,1,0.5,,0,1,1.5,1,0,SC,16,W,NA
5,4,4,4,,,,,2,1,0,3,oep739p,37,1792.0999999977648,5,0.5,,0,NA,1.5,2,0,SC,16,W,NA
6,2,2,3,,,,,2,0,3,1,oep739p,38,1480.800000000745,1,0.5,,0,1,4.5,1,0,SC,16,W,NA
6,2,2,3,,,,,2,0,3,1,oep739p,38,767.1999999992549,5,-0.5,,1,NA,2.5,2,1,SC,16,W,NA
6,3,3,3,,,,,3,1,2,0,oep739p,39,288.19999999925494,1,-0.5,,0,1,2.5,1,0,SC,16,W,NA
6,3,3,3,,,,,3,1,2,0,oep739p,39,861.3999999985099,4,-0.5,,1,2,-0.5,2,0,SC,16,W,NA
3,3,5,2,,,,,0,2,1,3,oep739p,40,741,5,-0.5,,1,NA,-1.5,1,0,SC,16,W,NA
3,3,5,2,,,,,0,2,1,3,oep739p,40,826.2000000029802,2,-0.5,,0,2,0.5,2,0,SC,16,W,NA
3,5,4,4,,,,,1,2,3,0,oep739p,41,265.5999999977648,2,0.5,,0,2,-0.5,1,1,SC,16,W,NA
3,5,4,4,,,,,1,2,3,0,oep739p,41,639.9000000022352,5,-0.5,,1,NA,-0.5,2,0,SC,16,W,NA
3,5,3,4,,,,,3,2,0,1,oep739p,42,105.80000000074506,5,-0.5,,1,NA,0.5,1,1,SC,16,W,NA
3,5,3,4,,,,,3,2,0,1,oep739p,42,462,4,-0.5,,0,2,0.5,2,0,SC,16,W,NA
2,4,5,3,,,,,2,0,1,3,oep739p,43,418.80000000074506,1,-0.5,,0,1,-3.5,1,1,SC,16,W,NA
2,4,5,3,,,,,2,0,1,3,oep739p,43,1066.9000000022352,3,-0.5,,1,1,-1.5,2,0,SC,16,W,NA
4,3,3,5,,,,,2,3,0,1,oep739p,44,6152.10000000149,4,0.5,,0,2,-1.5,1,1,SC,16,W,NA
4,3,3,5,,,,,2,3,0,1,oep739p,44,45.19999999925494,1,0.5,,1,1,1.5,2,1,SC,16,W,NA
3,4,5,4,,,,,3,2,1,0,oep739p,45,434.20000000298023,3,0.5,,1,1,-0.5,1,0,SC,16,W,NA
3,4,5,4,,,,,3,2,1,0,oep739p,45,0.30000000074505806,5,-0.5,,0,NA,-2.5,2,1,SC,16,W,NA
4,3,3,3,,,,,3,1,0,2,oep739p,46,1798.5999999977648,5,0.5,,0,NA,1.5,1,0,SC,16,W,NA
4,3,3,3,,,,,3,1,0,2,oep739p,46,2477.2000000029802,3,-0.5,,0,1,-0.5,2,1,SC,16,W,NA
4,1,5,2,,,,,3,0,2,1,oep739p,47,2060.5,2,0.5,,0,2,2.5,1,0,SC,16,W,NA
4,1,5,2,,,,,3,0,2,1,oep739p,47,3422.300000000745,1,-0.5,,0,1,-1.5,2,1,SC,16,W,NA
3,3,4,4,,,,,3,0,1,2,oep739p,48,1189.0999999977648,4,-0.5,,0,2,-1.5,1,1,SC,16,W,NA
3,3,4,4,,,,,3,0,1,2,oep739p,48,78.60000000149012,5,0.5,,0,NA,-1.5,2,1,SC,16,W,NA
6,4,4,2,,,,,3,2,0,1,oep739p,49,1189.5,2,0.5,,0,2,4.5,1,0,SC,16,W,NA
6,4,4,2,,,,,3,2,0,1,oep739p,49,462.0999999977648,5,0.5,,1,NA,4.5,2,1,SC,16,W,NA
4,4,4,4,,,,,0,2,1,3,oep739p,50,1738.5999999977648,5,-0.5,,0,NA,-0.5,1,1,SC,16,W,NA
4,4,4,4,,,,,0,2,1,3,oep739p,50,2414.10000000149,2,-0.5,,0,2,-0.5,2,1,SC,16,W,NA
4,3,2,5,,,,,2,0,3,1,oep739p,51,167.5,3,-0.5,,0,1,0.5,1,0,SC,16,W,NA
4,3,2,5,,,,,2,0,3,1,oep739p,51,845.6999999992549,4,-0.5,,0,2,-2.5,2,1,SC,16,W,NA
4,3,3,4,,,,,1,0,3,2,oep739p,52,1633.9000000022352,5,0.5,,0,NA,0.5,1,0,SC,16,W,NA
4,3,3,4,,,,,1,0,3,2,oep739p,52,520.5,1,0.5,,1,1,1.5,2,1,SC,16,W,NA
2,2,6,4,,,,,3,0,1,2,oep739p,53,268.69999999925494,3,-0.5,,0,1,-4.5,1,1,SC,16,W,NA
2,2,6,4,,,,,3,0,1,2,oep739p,53,236.40000000223517,5,-0.5,,1,NA,-6.5,2,0,SC,16,W,NA
4,6,3,6,,,,,0,2,3,1,oep739p,54,12,5,-0.5,,0,NA,0.5,1,0,SC,16,W,NA
4,6,3,6,,,,,0,2,3,1,oep739p,54,97.39999999850988,3,-0.5,,1,1,2.5,2,1,SC,16,W,NA
4,4,3,5,,,,,2,1,3,0,oep739p,55,195.80000000074506,5,0.5,,0,NA,0.5,1,0,SC,16,W,NA
4,4,3,5,,,,,2,1,3,0,oep739p,55,317,3,-0.5,,1,1,0.5,2,1,SC,16,W,NA
4,4,3,6,,,,,3,1,0,2,oep739p,56,268.69999999925494,1,-0.5,,0,1,0.5,1,0,SC,16,W,NA
4,4,3,6,,,,,3,1,0,2,oep739p,56,141.80000000074506,2,-0.5,,1,2,-2.5,2,0,SC,16,W,NA
4,4,4,3,,,,,1,3,2,0,oep739p,57,253.60000000149012,5,-0.5,,1,NA,0.5,1,1,SC,16,W,NA
4,4,4,3,,,,,1,3,2,0,oep739p,57,44.30000000074506,1,0.5,,0,1,0.5,2,0,SC,16,W,NA
5,3,3,1,,,,,1,3,0,2,oep739p,58,356.69999999925494,3,-0.5,,0,1,-0.5,1,1,SC,16,W,NA
5,3,3,1,,,,,1,3,0,2,oep739p,58,110,1,-0.5,,1,1,1.5,2,1,SC,16,W,NA
5,4,4,4,,,,,3,0,2,1,oep739p,59,771.6000000014901,3,0.5,,0,1,0.5,1,0,SC,16,W,NA
5,4,4,4,,,,,3,0,2,1,oep739p,59,332.19999999925494,5,-0.5,,0,NA,0.5,2,0,SC,16,W,NA
4,3,2,4,,,,,3,2,1,0,oep739p,60,444.8999999985099,5,0.5,,0,NA,1.5,1,0,SC,16,W,NA
4,3,2,4,,,,,3,2,1,0,oep739p,60,78.19999999925494,4,-0.5,,1,2,-1.5,2,0,SC,16,W,NA
2,4,3,4,,,,,2,3,1,0,oep739p,61,794.2999999970198,5,-0.5,,0,NA,-1.5,1,1,SC,16,W,NA
2,4,3,4,,,,,2,3,1,0,oep739p,61,1504.1000000014901,4,-0.5,,1,2,-0.5,2,0,SC,16,W,NA
4,2,3,3,,,,,0,3,2,1,oep739p,62,3234.099999997765,1,-0.5,,0,1,0.5,1,0,SC,16,W,NA
4,2,3,3,,,,,0,3,2,1,oep739p,62,8033,5,-0.5,,0,NA,-0.5,2,1,SC,16,W,NA
4,4,4,4,,,,,2,1,0,3,oep739p,63,6113.60000000149,2,0.5,,0,2,0.5,1,0,SC,16,W,NA
4,4,4,4,,,,,2,1,0,3,oep739p,63,2905.699999999255,5,-0.5,,0,NA,-0.5,2,1,SC,16,W,NA
2,3,4,1,,,,,1,0,2,3,oep739p,64,4389.300000000745,5,0.5,,0,NA,0.5,1,0,SC,16,W,NA
2,3,4,1,,,,,1,0,2,3,oep739p,64,1823.699999999255,1,-0.5,,0,1,-2.5,2,1,SC,16,W,NA
2,4,6,5,,,,,1,2,3,0,oep739p,65,112.80000000074506,4,0.5,,0,2,-0.5,1,1,SC,16,W,NA
2,4,6,5,,,,,1,2,3,0,oep739p,65,236.80000000074506,5,0.5,,1,NA,-4.5,2,0,SC,16,W,NA
2,3,2,5,,,,,1,2,0,3,oep739p,66,234.5,5,0.5,,1,NA,-1.5,1,0,SC,16,W,NA
2,3,2,5,,,,,1,2,0,3,oep739p,66,258.80000000074506,2,-0.5,,0,2,-3.5,2,1,SC,16,W,NA
4,1,3,3,,,,,2,3,0,1,oep739p,67,198.60000000149012,4,-0.5,,1,2,-2.5,1,0,SC,16,W,NA
4,1,3,3,,,,,2,3,0,1,oep739p,67,0.7000000029802322,3,0.5,,0,1,-1.5,2,1,SC,16,W,NA
4,3,4,4,,,,,0,3,1,2,oep739p,68,481.80000000074506,3,-0.5,,0,1,-1.5,1,1,SC,16,W,NA
4,3,4,4,,,,,0,3,1,2,oep739p,68,110,2,-0.5,,1,2,-0.5,2,0,SC,16,W,NA
2,3,6,3,,,,,0,1,2,3,oep739p,69,506.6000000014901,4,-0.5,,1,2,-0.5,1,0,SC,16,W,NA
2,3,6,3,,,,,0,1,2,3,oep739p,69,298.19999999925494,5,0.5,,0,NA,-3.5,2,1,SC,16,W,NA
5,5,4,5,,,,,0,1,3,2,oep739p,70,2459.800000000745,4,0.5,,0,2,0.5,1,0,SC,16,W,NA
5,5,4,5,,,,,0,1,3,2,oep739p,70,108.60000000149012,2,-0.5,,0,2,-0.5,2,1,SC,16,W,NA
3,5,5,0,,,,,3,1,2,0,oep739p,71,266.70000000298023,2,-0.5,,0,2,2.5,1,0,SC,16,W,NA
3,5,5,0,,,,,3,1,2,0,oep739p,71,205.5,3,-0.5,,1,1,-0.5,2,0,SC,16,W,NA
4,4,4,2,,,,,2,0,1,3,oep739p,72,425.80000000074506,2,-0.5,,0,2,1.5,1,0,SC,16,W,NA
4,4,4,2,,,,,2,0,1,3,oep739p,72,364.80000000074506,4,-0.5,,1,2,1.5,2,1,SC,16,W,NA
3,5,3,4,,,,,0,3,1,2,oep739p,73,384.3999999985099,4,-0.5,,0,2,0.5,1,0,SC,16,W,NA
3,5,3,4,,,,,0,3,1,2,oep739p,73,283.5,2,0.5,,1,2,-0.5,2,0,SC,16,W,NA
3,3,2,4,,,,,1,2,0,3,oep739p,74,199.69999999925494,5,0.5,,0,NA,0.5,1,0,SC,16,W,NA
3,3,2,4,,,,,1,2,0,3,oep739p,74,9.799999997019768,3,0.5,,1,1,1.5,2,1,SC,16,W,NA
3,5,3,2,,,,,1,0,3,2,oep739p,75,4210.900000002235,1,-0.5,,0,1,-0.5,1,1,SC,16,W,NA
3,5,3,2,,,,,1,0,3,2,oep739p,75,0.29999999701976776,5,0.5,,0,NA,3.5,2,0,SC,16,W,NA
3,3,5,5,,,,,0,2,1,3,oep739p,76,1864.7999999970198,3,0.5,,0,1,-1.5,1,1,SC,16,W,NA
3,3,5,5,,,,,0,2,1,3,oep739p,76,2201.89999999851,4,0.5,,0,2,-1.5,2,1,SC,16,W,NA
0,2,4,3,,,,,2,3,1,0,oep739p,77,586.6000000014901,4,0.5,,0,2,-0.5,1,1,SC,16,W,NA
0,2,4,3,,,,,2,3,1,0,oep739p,77,105.69999999925494,3,-0.5,,1,1,-2.5,2,0,SC,16,W,NA
2,4,2,4,,,,,0,2,3,1,oep739p,78,399.3999999985099,3,0.5,,0,1,2.5,1,0,SC,16,W,NA
2,4,2,4,,,,,0,2,3,1,oep739p,78,90.69999999925494,1,-0.5,,1,1,-0.5,2,0,SC,16,W,NA
5,5,3,3,,,,,3,2,0,1,oep739p,79,1198.300000000745,1,0.5,,0,1,2.5,1,0,SC,16,W,NA
5,5,3,3,,,,,3,2,0,1,oep739p,79,621.8999999985099,5,-0.5,,1,NA,3.5,2,1,SC,16,W,NA
2,3,6,4,,,,,3,1,2,0,oep739p,80,841.8999999985099,3,-0.5,,0,1,-3.5,1,1,SC,16,W,NA
2,3,6,4,,,,,3,1,2,0,oep739p,80,332.79999999701977,5,0.5,,1,NA,-4.5,2,0,SC,16,W,NA
5,5,3,3,,,,,0,1,3,2,oep739p,81,351.69999999925494,2,-0.5,,0,2,1.5,1,0,SC,16,W,NA
5,5,3,3,,,,,0,1,3,2,oep739p,81,174,3,-0.5,,1,1,1.5,2,1,SC,16,W,NA
1,4,6,5,,,,,2,0,1,3,oep739p,82,538.9000000022352,4,0.5,,0,2,-0.5,1,1,SC,16,W,NA
1,4,6,5,,,,,2,0,1,3,oep739p,82,402.19999999925494,5,0.5,,1,NA,-5.5,2,0,SC,16,W,NA
4,5,4,6,,,,,0,3,2,1,oep739p,83,262.5,2,0.5,,0,2,-1.5,1,1,SC,16,W,NA
4,5,4,6,,,,,0,3,2,1,oep739p,83,270.3999999985099,4,0.5,,1,2,-0.5,2,0,SC,16,W,NA
2,5,3,4,,,,,3,1,0,2,oep739p,84,1538.7000000029802,5,0.5,,0,NA,0.5,1,0,SC,16,W,NA
2,5,3,4,,,,,3,1,0,2,oep739p,84,1099.9000000022352,1,-0.5,,1,1,-1.5,2,0,SC,16,W,NA
4,4,6,4,,,,,2,3,0,1,oep739p,85,1676,2,0.5,,0,2,0.5,1,0,SC,16,W,NA
4,4,6,4,,,,,2,3,0,1,oep739p,85,1354,5,0.5,,0,NA,-1.5,2,1,SC,16,W,NA
4,4,6,4,,,,,1,3,2,0,oep739p,86,1430,4,0.5,,0,2,0.5,1,0,SC,16,W,NA
4,4,6,4,,,,,1,3,2,0,oep739p,86,669.1000000014901,5,-0.5,,0,NA,-2.5,2,1,SC,16,W,NA
3,4,4,5,,,,,1,2,3,0,oep739p,87,168.80000000074506,3,0.5,,0,1,0.5,1,0,SC,16,W,NA
3,4,4,5,,,,,1,2,3,0,oep739p,87,183.19999999925494,2,0.5,,0,2,-1.5,2,1,SC,16,W,NA
3,5,4,2,,,,,2,1,3,0,oep739p,88,809.6000000014901,4,-0.5,,0,2,2.5,1,0,SC,16,W,NA
3,5,4,2,,,,,2,1,3,0,oep739p,88,445.6000000014901,5,-0.5,,0,NA,1.5,2,0,SC,16,W,NA
4,2,3,5,,,,,1,3,0,2,oep739p,89,77.20000000298023,1,0.5,,0,1,1.5,1,0,SC,16,W,NA
4,2,3,5,,,,,1,3,0,2,oep739p,89,509.80000000074506,4,0.5,,0,2,-2.5,2,1,SC,16,W,NA
4,3,4,4,,,,,3,0,2,1,oep739p,90,309.69999999925494,5,0.5,,0,NA,-0.5,1,1,SC,16,W,NA
4,3,4,4,,,,,3,0,2,1,oep739p,90,786.6000000014901,2,-0.5,,0,2,-0.5,2,1,SC,16,W,NA
1,5,1,3,,,,,3,0,1,2,oep739p,91,1100.800000000745,5,-0.5,,0,NA,1.5,1,0,SC,16,W,NA
1,5,1,3,,,,,3,0,1,2,oep739p,91,102.10000000149012,3,-0.5,,0,1,3.5,2,0,SC,16,W,NA
3,3,4,3,,,,,2,1,0,3,oep739p,92,495,5,-0.5,,0,NA,-1.5,1,1,SC,16,W,NA
3,3,4,3,,,,,2,1,0,3,oep739p,92,93.29999999701977,4,-0.5,,0,2,-0.5,2,1,SC,16,W,NA
5,1,5,6,,,,,0,1,2,3,oep739p,93,475.6000000014901,5,0.5,,0,NA,-4.5,1,1,SC,16,W,NA
5,1,5,6,,,,,0,1,2,3,oep739p,93,749.6999999992549,2,-0.5,,1,2,-1.5,2,0,SC,16,W,NA
5,3,5,5,,,,,2,0,3,1,oep739p,94,540.5,2,0.5,,0,2,0.5,1,0,SC,16,W,NA
5,3,5,5,,,,,2,0,3,1,oep739p,94,460.1000000014901,5,-0.5,,0,NA,-2.5,2,1,SC,16,W,NA
1,4,4,4,,,,,1,0,2,3,oep739p,95,440.70000000298023,5,-0.5,,0,NA,-3.5,1,1,SC,16,W,NA
1,4,4,4,,,,,1,0,2,3,oep739p,95,222.60000000149012,3,0.5,,0,1,0.5,2,0,SC,16,W,NA
0,4,4,6,,,,,3,2,1,0,oep739p,96,512.7000000029802,1,0.5,,0,1,-3.5,1,1,SC,16,W,NA
0,4,4,6,,,,,3,2,1,0,oep739p,96,105.59999999776483,2,0.5,,1,2,-5.5,2,0,SC,16,W,NA
4,1,4,5,,,,,1,2,3,0,oep739p,97,396.19999999925494,1,0.5,,0,1,0.5,1,0,SC,16,W,NA
4,1,4,5,,,,,1,2,3,0,oep739p,97,113.30000000074506,5,0.5,,1,NA,-3.5,2,0,SC,16,W,NA
3,4,4,3,,,,,0,2,1,3,oep739p,98,426.69999999925494,3,0.5,,1,1,0.5,1,1,SC,16,W,NA
3,4,4,3,,,,,0,2,1,3,oep739p,98,329.6000000014901,5,0.5,,0,NA,0.5,2,0,SC,16,W,NA
5,5,2,5,,,,,1,0,3,2,oep739p,99,1375.5,5,0.5,,1,NA,3.5,1,1,SC,16,W,NA
5,5,2,5,,,,,1,0,3,2,oep739p,99,109,1,-0.5,,0,1,2.5,2,0,SC,16,W,NA
5,5,4,4,,,,,3,2,0,1,oep739p,100,11721.099999997765,5,-0.5,,0,NA,1.5,1,0,SC,16,W,NA
5,5,4,4,,,,,3,2,0,1,oep739p,100,1276.8999999985099,4,0.5,,0,2,1.5,2,0,SC,16,W,NA
4,4,4,3,,,,,3,0,1,2,oep739p,101,707.5,1,-0.5,,0,1,-0.5,1,1,SC,16,W,NA
4,4,4,3,,,,,3,0,1,2,oep739p,101,12.299999997019768,3,-0.5,,1,1,-0.5,2,0,SC,16,W,NA
3,4,6,2,,,,,2,1,3,0,oep739p,102,1804.699999999255,5,-0.5,,0,NA,-1.5,1,1,SC,16,W,NA
3,4,6,2,,,,,2,1,3,0,oep739p,102,268.70000000298023,4,0.5,,0,2,2.5,2,0,SC,16,W,NA
1,3,5,5,,,,,3,1,2,0,oep739p,103,350.1000000014901,3,0.5,,1,1,-1.5,1,0,SC,16,W,NA
1,3,5,5,,,,,3,1,2,0,oep739p,103,243.5,5,-0.5,,0,NA,-6.5,2,1,SC,16,W,NA
3,5,3,4,,,,,1,3,2,0,oep739p,104,290.6000000014901,2,0.5,,0,2,-0.5,1,1,SC,16,W,NA
3,5,3,4,,,,,1,3,2,0,oep739p,104,78.19999999925494,1,0.5,,1,1,0.5,2,1,SC,16,W,NA
4,4,3,4,,,,,0,1,3,2,oep739p,105,456.1000000014901,4,0.5,,0,2,0.5,1,0,SC,16,W,NA
4,4,3,4,,,,,0,1,3,2,oep739p,105,0.29999999701976776,1,0.5,,0,1,1.5,2,0,SC,16,W,NA
3,2,3,6,,,,,1,3,0,2,oep739p,106,570.5999999977648,5,-0.5,,0,NA,-4.5,1,1,SC,16,W,NA
3,2,3,6,,,,,1,3,0,2,oep739p,106,12.199999999254942,1,0.5,,1,1,0.5,2,1,SC,16,W,NA
5,3,3,4,,,,,3,1,0,2,oep739p,107,483.6000000014901,2,-0.5,,0,2,0.5,1,0,SC,16,W,NA
5,3,3,4,,,,,3,1,0,2,oep739p,107,461,5,0.5,,1,NA,1.5,2,1,SC,16,W,NA
3,6,3,3,,,,,2,0,3,1,oep739p,108,416,5,0.5,,0,NA,3.5,1,0,SC,16,W,NA
3,6,3,3,,,,,2,0,3,1,oep739p,108,203,2,-0.5,,1,2,-0.5,2,0,SC,16,W,NA
4,6,5,4,,,,,1,3,0,2,50d08uq,1,4730.100000000559,5,0.5,,1,NA,1.5,1,1,LR,20,W,NA
4,6,5,4,,,,,1,3,0,2,50d08uq,1,3788.2000000001863,2,0.5,,1,2,0.5,2,1,LR,20,W,NA
2,4,4,5,,,,,1,2,0,3,50d08uq,2,1819.3999999994412,1,0.5,,0,1,-1.5,1,1,LR,20,W,NA
2,4,4,5,,,,,1,2,0,3,50d08uq,2,1354.7000000001863,5,-0.5,,0,NA,-3.5,2,1,LR,20,W,NA
1,5,3,2,,,,,2,0,1,3,50d08uq,3,9071.5,5,-0.5,,0,NA,0.5,1,0,LR,20,W,NA
1,5,3,2,,,,,2,0,1,3,50d08uq,3,1851.0999999996275,4,0.5,,1,2,3.5,2,1,LR,20,W,NA
5,2,5,3,,,,,2,1,0,3,50d08uq,4,6203.4000000003725,5,-0.5,,1,NA,-1.5,1,0,LR,20,W,NA
5,2,5,3,,,,,2,1,0,3,50d08uq,4,1417.7000000001863,1,0.5,,1,1,0.5,2,1,LR,20,W,NA
3,4,4,3,,,,,3,0,2,1,50d08uq,5,4606.0999999996275,2,0.5,,1,2,0.5,1,1,LR,20,W,NA
3,4,4,3,,,,,3,0,2,1,50d08uq,5,21717,5,0.5,,1,NA,0.5,2,1,LR,20,W,NA
4,5,4,5,,,,,1,3,2,0,50d08uq,6,3218.7999999998137,4,-0.5,,1,2,-0.5,1,0,LR,20,W,NA
4,5,4,5,,,,,1,3,2,0,50d08uq,6,4811,2,-0.5,,0,2,-1.5,2,1,LR,20,W,NA
5,4,3,3,,,,,3,2,0,1,50d08uq,7,4951.399999999441,5,-0.5,,1,NA,2.5,1,1,LR,20,W,NA
5,4,3,3,,,,,3,2,0,1,50d08uq,7,4010.9000000003725,4,-0.5,,0,2,0.5,2,0,LR,20,W,NA
5,4,3,5,,,,,0,2,3,1,50d08uq,8,2610.2000000001863,1,-0.5,,1,1,1.5,1,1,LR,20,W,NA
5,4,3,5,,,,,0,2,3,1,50d08uq,8,13326.5,2,-0.5,,0,2,-0.5,2,1,LR,20,W,NA
4,4,4,4,,,,,0,3,2,1,50d08uq,9,19720.299999999814,2,0.5,,1,2,0.5,1,1,LR,20,W,NA
4,4,4,4,,,,,0,3,2,1,50d08uq,9,17213.900000000373,1,-0.5,,0,1,-0.5,2,1,LR,20,W,NA
4,5,2,4,,,,,2,0,3,1,50d08uq,10,2210.600000000559,3,0.5,,1,1,3.5,1,1,LR,20,W,NA
4,5,2,4,,,,,2,0,3,1,50d08uq,10,2443.300000000745,5,-0.5,,1,NA,2.5,2,1,LR,20,W,NA
3,4,5,2,,,,,1,0,3,2,50d08uq,11,1961.2999999998137,1,0.5,,0,1,-1.5,1,1,LR,20,W,NA
3,4,5,2,,,,,1,0,3,2,50d08uq,11,6205.899999999441,3,0.5,,0,1,-0.5,2,1,LR,20,W,NA
3,2,5,6,,,,,2,3,0,1,50d08uq,12,1188.8999999994412,2,0.5,,0,2,-2.5,1,1,LR,20,W,NA
3,2,5,6,,,,,2,3,0,1,50d08uq,12,2858.7000000001863,4,-0.5,,0,2,-4.5,2,1,LR,20,W,NA
3,6,3,4,,,,,1,0,2,3,50d08uq,13,1145.8999999994412,4,-0.5,,1,2,1.5,1,1,LR,20,W,NA
3,6,3,4,,,,,1,0,2,3,50d08uq,13,6078.0999999996275,5,-0.5,,1,NA,1.5,2,1,LR,20,W,NA
3,4,1,2,,,,,0,3,1,2,50d08uq,14,7501.100000000559,5,0.5,,1,NA,4.5,1,1,LR,20,W,NA
3,4,1,2,,,,,0,3,1,2,50d08uq,14,6732.799999999814,1,0.5,,1,1,2.5,2,1,LR,20,W,NA
4,4,2,5,,,,,0,2,1,3,50d08uq,15,1258.4000000003725,5,-0.5,,0,NA,0.5,1,0,LR,20,W,NA
4,4,2,5,,,,,0,2,1,3,50d08uq,15,1358.2999999998137,3,-0.5,,0,1,1.5,2,0,LR,20,W,NA
4,4,1,4,,,,,3,1,2,0,50d08uq,16,1146.5,3,0.5,,1,1,3.5,1,1,LR,20,W,NA
4,4,1,4,,,,,3,1,2,0,50d08uq,16,3098.399999999441,4,0.5,,1,2,0.5,2,1,LR,20,W,NA
2,6,5,2,,,,,2,3,1,0,50d08uq,17,2946.600000000559,1,-0.5,,0,1,-3.5,1,1,LR,20,W,NA
2,6,5,2,,,,,2,3,1,0,50d08uq,17,6827.0999999996275,5,0.5,,1,NA,1.5,2,1,LR,20,W,NA
4,5,3,4,,,,,3,0,1,2,50d08uq,18,2635.600000000559,2,0.5,,1,2,0.5,1,1,LR,20,W,NA
4,5,3,4,,,,,3,0,1,2,50d08uq,18,2138.7999999998137,3,-0.5,,1,1,1.5,2,1,LR,20,W,NA
4,5,5,4,,,,,0,1,2,3,50d08uq,19,8289.5,3,0.5,,1,1,0.5,1,1,LR,20,W,NA
4,5,5,4,,,,,0,1,2,3,50d08uq,19,5641.5,5,0.5,,0,NA,0.5,2,0,LR,20,W,NA
4,5,4,6,,,,,0,1,3,2,50d08uq,20,1603.4000000003725,4,0.5,,0,2,-0.5,1,1,LR,20,W,NA
4,5,4,6,,,,,0,1,3,2,50d08uq,20,4425.5999999996275,5,-0.5,,1,NA,-1.5,2,0,LR,20,W,NA
3,4,5,3,,,,,1,2,3,0,50d08uq,21,1956.8999999994412,3,0.5,,1,1,-0.5,1,0,LR,20,W,NA
3,4,5,3,,,,,1,2,3,0,50d08uq,21,18442.799999999814,5,0.5,,0,NA,-0.5,2,1,LR,20,W,NA
3,4,2,5,,,,,2,1,3,0,50d08uq,22,1144.5,3,0.5,,1,1,2.5,1,1,LR,20,W,NA
3,4,2,5,,,,,2,1,3,0,50d08uq,22,1600.7000000001863,1,0.5,,1,1,1.5,2,1,LR,20,W,NA
1,3,4,4,,,,,3,1,0,2,50d08uq,23,3435.800000000745,5,0.5,,0,NA,-3.5,1,1,LR,20,W,NA
1,3,4,4,,,,,3,1,0,2,50d08uq,23,1826.5,2,0.5,,0,2,-2.5,2,1,LR,20,W,NA
3,2,2,2,,,,,3,2,1,0,50d08uq,24,3820.5,1,-0.5,,0,1,0.5,1,0,LR,20,W,NA
3,2,2,2,,,,,3,2,1,0,50d08uq,24,1118.300000000745,5,0.5,,1,NA,1.5,2,1,LR,20,W,NA
3,5,3,0,,,,,2,1,3,0,50d08uq,25,1624.2000000001863,5,0.5,,1,NA,5.5,1,1,LR,20,W,NA
3,5,3,0,,,,,2,1,3,0,50d08uq,25,1264.5,4,0.5,,1,2,5.5,2,1,LR,20,W,NA
4,5,5,5,,,,,2,0,1,3,50d08uq,26,6729.299999999814,1,-0.5,,0,1,-1.5,1,1,LR,20,W,NA
4,5,5,5,,,,,2,0,1,3,50d08uq,26,1919,4,-0.5,,1,2,-0.5,2,0,LR,20,W,NA
6,2,5,4,,,,,1,3,0,2,50d08uq,27,2880.2999999998137,3,0.5,,0,1,-2.5,1,1,LR,20,W,NA
6,2,5,4,,,,,1,3,0,2,50d08uq,27,1866.9000000003725,2,-0.5,,1,2,1.5,2,1,LR,20,W,NA
4,2,6,2,,,,,3,2,0,1,50d08uq,28,4373.5,5,-0.5,,0,NA,-2.5,1,1,LR,20,W,NA
4,2,6,2,,,,,3,2,0,1,50d08uq,28,4092.2999999998137,2,0.5,,1,2,2.5,2,1,LR,20,W,NA
2,4,2,3,,,,,1,0,2,3,50d08uq,29,4518.600000000559,5,0.5,,1,NA,1.5,1,1,LR,20,W,NA
2,4,2,3,,,,,1,0,2,3,50d08uq,29,3549,1,0.5,,1,1,0.5,2,1,LR,20,W,NA
3,3,5,3,,,,,2,3,1,0,50d08uq,30,1556.5,5,0.5,,0,NA,-1.5,1,1,LR,20,W,NA
3,3,5,3,,,,,2,3,1,0,50d08uq,30,3836.899999999441,3,-0.5,,0,1,-2.5,2,1,LR,20,W,NA
3,3,4,4,,,,,0,2,3,1,50d08uq,31,1709.8999999994412,2,-0.5,,0,2,-1.5,1,1,LR,20,W,NA
3,3,4,4,,,,,0,2,3,1,50d08uq,31,1390.7000000001863,5,-0.5,,0,NA,-2.5,2,1,LR,20,W,NA
2,5,5,3,,,,,0,3,1,2,50d08uq,32,4984.5999999996275,4,0.5,,1,2,2.5,1,1,LR,20,W,NA
2,5,5,3,,,,,0,3,1,2,50d08uq,32,5719.700000000186,1,-0.5,,0,1,-3.5,2,1,LR,20,W,NA
5,5,5,4,,,,,3,2,1,0,50d08uq,33,1186,4,0.5,,1,2,1.5,1,1,LR,20,W,NA
5,5,5,4,,,,,3,2,1,0,50d08uq,33,909.3999999994412,5,0.5,,1,NA,1.5,2,1,LR,20,W,NA
3,5,5,5,,,,,0,3,2,1,50d08uq,34,3440.600000000559,2,-0.5,,0,2,-2.5,1,1,LR,20,W,NA
3,5,5,5,,,,,0,3,2,1,50d08uq,34,19692.39999999944,5,-0.5,,0,NA,-2.5,2,1,LR,20,W,NA
4,5,4,4,,,,,0,2,1,3,50d08uq,35,3337.2000000001863,4,-0.5,,1,2,0.5,1,1,LR,20,W,NA
4,5,4,4,,,,,0,2,1,3,50d08uq,35,2650.7000000001863,3,0.5,,1,1,1.5,2,1,LR,20,W,NA
2,6,3,4,,,,,1,0,3,2,50d08uq,36,1355.4000000003725,5,-0.5,,1,NA,0.5,1,1,LR,20,W,NA
2,6,3,4,,,,,1,0,3,2,50d08uq,36,1408.2000000001863,3,-0.5,,1,1,2.5,2,1,LR,20,W,NA
5,4,4,4,,,,,0,1,3,2,50d08uq,37,4063,1,0.5,,1,1,1.5,1,1,LR,20,W,NA
5,4,4,4,,,,,0,1,3,2,50d08uq,37,1836.5,5,0.5,,1,NA,1.5,2,1,LR,20,W,NA
6,2,2,3,,,,,1,3,2,0,50d08uq,38,980.3000000007451,1,0.5,,1,1,4.5,1,1,LR,20,W,NA
6,2,2,3,,,,,1,3,2,0,50d08uq,38,3868.9000000003725,5,-0.5,,1,NA,2.5,2,1,LR,20,W,NA
6,3,3,3,,,,,3,1,0,2,50d08uq,39,2662.399999999441,1,-0.5,,1,1,2.5,1,1,LR,20,W,NA
6,3,3,3,,,,,3,1,0,2,50d08uq,39,5353.5,4,-0.5,,0,2,-0.5,2,1,LR,20,W,NA
3,3,5,2,,,,,0,1,2,3,50d08uq,40,4132.0999999996275,5,-0.5,,0,NA,-1.5,1,1,LR,20,W,NA
3,3,5,2,,,,,0,1,2,3,50d08uq,40,2960.199999999255,2,-0.5,,1,2,0.5,2,1,LR,20,W,NA
3,5,4,4,,,,,2,3,0,1,50d08uq,41,5531.4000000003725,2,0.5,,0,2,-0.5,1,1,LR,20,W,NA
3,5,4,4,,,,,2,3,0,1,50d08uq,41,8380.200000000186,5,-0.5,,0,NA,-0.5,2,1,LR,20,W,NA
3,5,3,4,,,,,3,0,1,2,50d08uq,42,5792.4000000003725,5,-0.5,,1,NA,0.5,1,1,LR,20,W,NA
3,5,3,4,,,,,3,0,1,2,50d08uq,42,2347.2000000001863,4,-0.5,,1,2,0.5,2,1,LR,20,W,NA
2,4,5,3,,,,,3,0,2,1,50d08uq,43,2188.300000000745,1,-0.5,,0,1,-3.5,1,1,LR,20,W,NA
2,4,5,3,,,,,3,0,2,1,50d08uq,43,9019.700000000186,3,-0.5,,1,1,-1.5,2,0,LR,20,W,NA
4,3,3,5,,,,,3,1,2,0,50d08uq,44,1662.5,4,0.5,,1,2,-1.5,1,0,LR,20,W,NA
4,3,3,5,,,,,3,1,2,0,50d08uq,44,1068.9000000003725,1,0.5,,1,1,1.5,2,1,LR,20,W,NA
3,4,5,4,,,,,1,2,0,3,50d08uq,45,8581.299999999814,3,0.5,,1,1,-0.5,1,0,LR,20,W,NA
3,4,5,4,,,,,1,2,0,3,50d08uq,45,4940.5999999996275,5,-0.5,,0,NA,-2.5,2,1,LR,20,W,NA
4,3,3,3,,,,,2,0,3,1,50d08uq,46,3128.4000000003725,5,0.5,,1,NA,1.5,1,1,LR,20,W,NA
4,3,3,3,,,,,2,0,3,1,50d08uq,46,2317.0999999996275,3,-0.5,,0,1,-0.5,2,1,LR,20,W,NA
4,1,5,2,,,,,1,2,3,0,50d08uq,47,2303.5,2,0.5,,1,2,2.5,1,1,LR,20,W,NA
4,1,5,2,,,,,1,2,3,0,50d08uq,47,3113.5,1,-0.5,,0,1,-1.5,2,1,LR,20,W,NA
3,3,4,4,,,,,2,1,0,3,50d08uq,48,6076.9000000003725,4,-0.5,,0,2,-1.5,1,1,LR,20,W,NA
3,3,4,4,,,,,2,1,0,3,50d08uq,48,3516.100000000559,5,0.5,,0,NA,-1.5,2,1,LR,20,W,NA
6,4,4,2,,,,,2,3,1,0,50d08uq,49,956.3999999994412,2,0.5,,1,2,4.5,1,1,LR,20,W,NA
6,4,4,2,,,,,2,3,1,0,50d08uq,49,1918.5999999996275,5,0.5,,1,NA,4.5,2,1,LR,20,W,NA
4,4,4,4,,,,,1,2,0,3,50d08uq,50,6107.4000000003725,5,-0.5,,0,NA,-0.5,1,1,LR,20,W,NA
4,4,4,4,,,,,1,2,0,3,50d08uq,50,5164.5,2,-0.5,,1,2,-0.5,2,0,LR,20,W,NA
4,3,2,5,,,,,1,0,2,3,50d08uq,51,1370.7000000001863,3,-0.5,,1,1,0.5,1,1,LR,20,W,NA
4,3,2,5,,,,,1,0,2,3,50d08uq,51,3502.899999999441,4,-0.5,,0,2,-2.5,2,1,LR,20,W,NA
4,3,3,4,,,,,0,3,2,1,50d08uq,52,2122.2999999998137,5,0.5,,0,NA,0.5,1,0,LR,20,W,NA
4,3,3,4,,,,,0,3,2,1,50d08uq,52,4093.2000000001863,1,0.5,,1,1,1.5,2,1,LR,20,W,NA
2,2,6,4,,,,,0,1,2,3,50d08uq,53,2567.2999999998137,3,-0.5,,0,1,-4.5,1,1,LR,20,W,NA
2,2,6,4,,,,,0,1,2,3,50d08uq,53,1354.5,5,-0.5,,0,NA,-6.5,2,1,LR,20,W,NA
4,6,3,6,,,,,3,0,1,2,50d08uq,54,3404.399999999441,5,-0.5,,1,NA,0.5,1,1,LR,20,W,NA
4,6,3,6,,,,,3,0,1,2,50d08uq,54,1452.2000000001863,3,-0.5,,1,1,2.5,2,1,LR,20,W,NA
4,4,3,5,,,,,2,0,1,3,50d08uq,55,2387.2999999998137,5,0.5,,1,NA,0.5,1,1,LR,20,W,NA
4,4,3,5,,,,,2,0,1,3,50d08uq,55,1517.2999999998137,3,-0.5,,1,1,0.5,2,1,LR,20,W,NA
4,4,3,6,,,,,0,2,1,3,50d08uq,56,5365.600000000559,1,-0.5,,1,1,0.5,1,1,LR,20,W,NA
4,4,3,6,,,,,0,2,1,3,50d08uq,56,1885.0999999996275,2,-0.5,,0,2,-2.5,2,1,LR,20,W,NA
4,4,4,3,,,,,0,1,3,2,50d08uq,57,1725.2000000001863,5,-0.5,,0,NA,0.5,1,0,LR,20,W,NA
4,4,4,3,,,,,0,1,3,2,50d08uq,57,1628.2000000001863,1,0.5,,0,1,0.5,2,0,LR,20,W,NA
5,3,3,1,,,,,3,0,2,1,50d08uq,58,1274.300000000745,3,-0.5,,1,1,-0.5,1,0,LR,20,W,NA
5,3,3,1,,,,,3,0,2,1,50d08uq,58,974.4000000003725,1,-0.5,,1,1,1.5,2,1,LR,20,W,NA
5,4,4,4,,,,,2,3,0,1,50d08uq,59,2913.2000000001863,3,0.5,,0,1,0.5,1,0,LR,20,W,NA
5,4,4,4,,,,,2,3,0,1,50d08uq,59,18763.700000000186,5,-0.5,,1,NA,0.5,2,1,LR,20,W,NA
4,3,2,4,,,,,1,0,3,2,50d08uq,60,1055.300000000745,5,0.5,,1,NA,1.5,1,1,LR,20,W,NA
4,3,2,4,,,,,1,0,3,2,50d08uq,60,1147.3999999994412,4,-0.5,,1,2,-1.5,2,0,LR,20,W,NA
2,4,3,4,,,,,3,2,0,1,50d08uq,61,4365.799999999814,5,-0.5,,0,NA,-1.5,1,1,LR,20,W,NA
2,4,3,4,,,,,3,2,0,1,50d08uq,61,3757.0999999996275,4,-0.5,,0,2,-0.5,2,1,LR,20,W,NA
4,2,3,3,,,,,3,1,0,2,50d08uq,62,1765.9000000003725,1,-0.5,,1,1,0.5,1,1,LR,20,W,NA
4,2,3,3,,,,,3,1,0,2,50d08uq,62,3872.5999999996275,5,-0.5,,0,NA,-0.5,2,1,LR,20,W,NA
4,4,4,4,,,,,1,3,2,0,50d08uq,63,1447.0999999996275,2,0.5,,1,2,0.5,1,1,LR,20,W,NA
4,4,4,4,,,,,1,3,2,0,50d08uq,63,6782.9000000003725,5,-0.5,,1,NA,-0.5,2,0,LR,20,W,NA
2,3,4,1,,,,,2,1,0,3,50d08uq,64,1076.9000000003725,5,0.5,,1,NA,0.5,1,1,LR,20,W,NA
2,3,4,1,,,,,2,1,0,3,50d08uq,64,7634.9000000003725,1,-0.5,,0,1,-2.5,2,1,LR,20,W,NA
2,4,6,5,,,,,1,2,3,0,50d08uq,65,1129,4,0.5,,0,2,-0.5,1,1,LR,20,W,NA
2,4,6,5,,,,,1,2,3,0,50d08uq,65,763.3999999994412,5,0.5,,0,NA,-4.5,2,1,LR,20,W,NA
2,3,2,5,,,,,1,3,0,2,50d08uq,66,1486.3999999994412,5,0.5,,0,NA,-1.5,1,1,LR,20,W,NA
2,3,2,5,,,,,1,3,0,2,50d08uq,66,2538,2,-0.5,,0,2,-3.5,2,1,LR,20,W,NA
4,1,3,3,,,,,2,0,3,1,50d08uq,67,1328.6000000005588,4,-0.5,,0,2,-2.5,1,1,LR,20,W,NA
4,1,3,3,,,,,2,0,3,1,50d08uq,67,1659.3999999994412,3,0.5,,0,1,-1.5,2,1,LR,20,W,NA
4,3,4,4,,,,,2,1,3,0,50d08uq,68,10618.399999999441,3,-0.5,,1,1,-1.5,1,0,LR,20,W,NA
4,3,4,4,,,,,2,1,3,0,50d08uq,68,1292.2000000001863,2,-0.5,,0,2,-0.5,2,1,LR,20,W,NA
2,3,6,3,,,,,3,1,2,0,50d08uq,69,1997.300000000745,4,-0.5,,0,2,-0.5,1,1,LR,20,W,NA
2,3,6,3,,,,,3,1,2,0,50d08uq,69,1742.2999999998137,5,0.5,,0,NA,-3.5,2,1,LR,20,W,NA
5,5,4,5,,,,,3,2,1,0,50d08uq,70,7114,4,0.5,,1,2,0.5,1,1,LR,20,W,NA
5,5,4,5,,,,,3,2,1,0,50d08uq,70,2427.7999999998137,2,-0.5,,0,2,-0.5,2,1,LR,20,W,NA
3,5,5,0,,,,,0,2,3,1,50d08uq,71,1677.2000000001863,2,-0.5,,0,2,2.5,1,0,LR,20,W,NA
3,5,5,0,,,,,0,2,3,1,50d08uq,71,5761.399999999441,3,-0.5,,1,1,-0.5,2,0,LR,20,W,NA
4,4,4,2,,,,,0,3,1,2,50d08uq,72,1880.3999999994412,2,-0.5,,1,2,1.5,1,1,LR,20,W,NA
4,4,4,2,,,,,0,3,1,2,50d08uq,72,10554.599999999627,4,-0.5,,1,2,1.5,2,1,LR,20,W,NA
3,5,3,4,,,,,2,1,3,0,50d08uq,73,4569.800000000745,4,-0.5,,1,2,0.5,1,1,LR,20,W,NA
3,5,3,4,,,,,2,1,3,0,50d08uq,73,4086.199999999255,2,0.5,,0,2,-0.5,2,1,LR,20,W,NA
3,3,2,4,,,,,0,3,2,1,50d08uq,74,1430.3999999994412,5,0.5,,1,NA,0.5,1,1,LR,20,W,NA
3,3,2,4,,,,,0,3,2,1,50d08uq,74,1097.0999999996275,3,0.5,,1,1,1.5,2,1,LR,20,W,NA
3,5,3,2,,,,,2,0,1,3,50d08uq,75,3315.5,1,-0.5,,0,1,-0.5,1,1,LR,20,W,NA
3,5,3,2,,,,,2,0,1,3,50d08uq,75,957.2999999998137,5,0.5,,1,NA,3.5,2,1,LR,20,W,NA
3,3,5,5,,,,,2,3,0,1,50d08uq,76,1021.5,3,0.5,,0,1,-1.5,1,1,LR,20,W,NA
3,3,5,5,,,,,2,3,0,1,50d08uq,76,986.4000000003725,4,0.5,,0,2,-1.5,2,1,LR,20,W,NA
0,2,4,3,,,,,1,3,0,2,50d08uq,77,816.2000000001863,4,0.5,,0,2,-0.5,1,1,LR,20,W,NA
0,2,4,3,,,,,1,3,0,2,50d08uq,77,1564.199999999255,3,-0.5,,0,1,-2.5,2,1,LR,20,W,NA
2,4,2,4,,,,,3,2,0,1,50d08uq,78,913.8000000007451,3,0.5,,0,1,2.5,1,0,LR,20,W,NA
2,4,2,4,,,,,3,2,0,1,50d08uq,78,1407.7999999988824,1,-0.5,,0,1,-0.5,2,1,LR,20,W,NA
5,5,3,3,,,,,1,2,0,3,50d08uq,79,812.7000000011176,1,0.5,,0,1,2.5,1,0,LR,20,W,NA
5,5,3,3,,,,,1,2,0,3,50d08uq,79,2537.4000000003725,5,-0.5,,0,NA,3.5,2,0,LR,20,W,NA
2,3,6,4,,,,,0,3,1,2,50d08uq,80,1034.4000000003725,3,-0.5,,0,1,-3.5,1,1,LR,20,W,NA
2,3,6,4,,,,,0,3,1,2,50d08uq,80,1148.4000000003725,5,0.5,,0,NA,-4.5,2,1,LR,20,W,NA
5,5,3,3,,,,,3,1,0,2,50d08uq,81,840.5,2,-0.5,,1,2,1.5,1,1,LR,20,W,NA
5,5,3,3,,,,,3,1,0,2,50d08uq,81,1053.300000000745,3,-0.5,,1,1,1.5,2,1,LR,20,W,NA
1,4,6,5,,,,,2,0,3,1,50d08uq,82,703.1000000014901,4,0.5,,0,2,-0.5,1,1,LR,20,W,NA
1,4,6,5,,,,,2,0,3,1,50d08uq,82,476.5,5,0.5,,0,NA,-5.5,2,1,LR,20,W,NA
4,5,4,6,,,,,1,0,3,2,50d08uq,83,673,2,0.5,,0,2,-1.5,1,1,LR,20,W,NA
4,5,4,6,,,,,1,0,3,2,50d08uq,83,478.40000000037253,4,0.5,,0,2,-0.5,2,1,LR,20,W,NA
2,5,3,4,,,,,2,1,0,3,50d08uq,84,679.0999999996275,5,0.5,,0,NA,0.5,1,0,LR,20,W,NA
2,5,3,4,,,,,2,1,0,3,50d08uq,84,940.2999999988824,1,-0.5,,0,1,-1.5,2,1,LR,20,W,NA
4,4,6,4,,,,,0,2,3,1,50d08uq,85,475.19999999925494,2,0.5,,0,2,0.5,1,0,LR,20,W,NA
4,4,6,4,,,,,0,2,3,1,50d08uq,85,369.69999999925494,5,0.5,,0,NA,-1.5,2,1,LR,20,W,NA
4,4,6,4,,,,,0,1,3,2,50d08uq,86,685.0999999996275,4,0.5,,0,2,0.5,1,0,LR,20,W,NA
4,4,6,4,,,,,0,1,3,2,50d08uq,86,445.5,5,-0.5,,0,NA,-2.5,2,1,LR,20,W,NA
3,4,4,5,,,,,1,3,2,0,50d08uq,87,1570.699999999255,3,0.5,,1,1,0.5,1,1,LR,20,W,NA
3,4,4,5,,,,,1,3,2,0,50d08uq,87,1817.0999999996275,2,0.5,,0,2,-1.5,2,1,LR,20,W,NA
3,5,4,2,,,,,2,3,1,0,50d08uq,88,1773.300000000745,4,-0.5,,1,2,2.5,1,1,LR,20,W,NA
3,5,4,2,,,,,2,3,1,0,50d08uq,88,1691.5999999996275,5,-0.5,,1,NA,1.5,2,1,LR,20,W,NA
4,2,3,5,,,,,0,2,1,3,50d08uq,89,5318.300000000745,1,0.5,,1,1,1.5,1,1,LR,20,W,NA
4,2,3,5,,,,,0,2,1,3,50d08uq,89,1820.5,4,0.5,,0,2,-2.5,2,1,LR,20,W,NA
4,3,4,4,,,,,3,0,1,2,50d08uq,90,1607,5,0.5,,0,NA,-0.5,1,1,LR,20,W,NA
4,3,4,4,,,,,3,0,1,2,50d08uq,90,3680.9000000003725,2,-0.5,,0,2,-0.5,2,1,LR,20,W,NA
1,5,1,3,,,,,3,0,2,1,50d08uq,91,3292.300000000745,5,-0.5,,0,NA,1.5,1,0,LR,20,W,NA
1,5,1,3,,,,,3,0,2,1,50d08uq,91,5038.5,3,-0.5,,0,1,3.5,2,0,LR,20,W,NA
3,3,4,3,,,,,0,1,2,3,50d08uq,92,2673.4000000003725,5,-0.5,,0,NA,-1.5,1,1,LR,20,W,NA
3,3,4,3,,,,,0,1,2,3,50d08uq,92,7992.0999999996275,4,-0.5,,0,2,-0.5,2,1,LR,20,W,NA
5,1,5,6,,,,,1,2,3,0,50d08uq,93,2328.60000000149,5,0.5,,0,NA,-4.5,1,1,LR,20,W,NA
5,1,5,6,,,,,1,2,3,0,50d08uq,93,7002.5,2,-0.5,,1,2,-1.5,2,0,LR,20,W,NA
5,3,5,5,,,,,3,1,2,0,50d08uq,94,8981.300000000745,2,0.5,,0,2,0.5,1,0,LR,20,W,NA
5,3,5,5,,,,,3,1,2,0,50d08uq,94,1545,5,-0.5,,0,NA,-2.5,2,1,LR,20,W,NA
1,4,4,4,,,,,3,2,1,0,50d08uq,95,1074.4000000003725,5,-0.5,,0,NA,-3.5,1,1,LR,20,W,NA
1,4,4,4,,,,,3,2,1,0,50d08uq,95,1562.199999999255,3,0.5,,1,1,0.5,2,1,LR,20,W,NA
0,4,4,6,,,,,1,0,2,3,50d08uq,96,1871.4000000003725,1,0.5,,0,1,-3.5,1,1,LR,20,W,NA
0,4,4,6,,,,,1,0,2,3,50d08uq,96,1433.6000000014901,2,0.5,,0,2,-5.5,2,1,LR,20,W,NA
4,1,4,5,,,,,3,1,0,2,50d08uq,97,1980.5,1,0.5,,1,1,0.5,1,1,LR,20,W,NA
4,1,4,5,,,,,3,1,0,2,50d08uq,97,6682.200000001118,5,0.5,,0,NA,-3.5,2,1,LR,20,W,NA
3,4,4,3,,,,,2,1,0,3,50d08uq,98,1492,3,0.5,,1,1,0.5,1,1,LR,20,W,NA
3,4,4,3,,,,,2,1,0,3,50d08uq,98,1415.5999999996275,5,0.5,,1,NA,0.5,2,1,LR,20,W,NA
5,5,2,5,,,,,3,0,2,1,50d08uq,99,1713.4000000003725,5,0.5,,1,NA,3.5,1,1,LR,20,W,NA
5,5,2,5,,,,,3,0,2,1,50d08uq,99,984.4000000003725,1,-0.5,,1,1,2.5,2,1,LR,20,W,NA
5,5,4,4,,,,,0,1,3,2,50d08uq,100,1499.800000000745,5,-0.5,,1,NA,1.5,1,1,LR,20,W,NA
5,5,4,4,,,,,0,1,3,2,50d08uq,100,1051.300000000745,4,0.5,,1,2,1.5,2,1,LR,20,W,NA
4,4,4,3,,,,,1,3,2,0,50d08uq,101,3054,1,-0.5,,0,1,-0.5,1,1,LR,20,W,NA
4,4,4,3,,,,,1,3,2,0,50d08uq,101,1307.7000000011176,3,-0.5,,1,1,-0.5,2,0,LR,20,W,NA
3,4,6,2,,,,,1,0,2,3,50d08uq,102,12591.599999999627,5,-0.5,,0,NA,-1.5,1,1,LR,20,W,NA
3,4,6,2,,,,,1,0,2,3,50d08uq,102,7819.199999999255,4,0.5,,1,2,2.5,2,1,LR,20,W,NA
1,3,5,5,,,,,2,0,1,3,50d08uq,103,1251.9000000003725,3,0.5,,0,1,-1.5,1,1,LR,20,W,NA
1,3,5,5,,,,,2,0,1,3,50d08uq,103,4205.5,5,-0.5,,0,NA,-6.5,2,1,LR,20,W,NA
3,5,3,4,,,,,3,2,0,1,50d08uq,104,7516.199999999255,2,0.5,,1,2,-0.5,1,0,LR,20,W,NA
3,5,3,4,,,,,3,2,0,1,50d08uq,104,3932,1,0.5,,0,1,0.5,2,0,LR,20,W,NA
4,4,3,4,,,,,1,2,0,3,50d08uq,105,791.5999999996275,4,0.5,,1,2,0.5,1,1,LR,20,W,NA
4,4,3,4,,,,,1,2,0,3,50d08uq,105,716.1999999992549,1,0.5,,1,1,1.5,2,1,LR,20,W,NA
3,2,3,6,,,,,2,0,3,1,50d08uq,106,1212.8999999985099,5,-0.5,,0,NA,-4.5,1,1,LR,20,W,NA
3,2,3,6,,,,,2,0,3,1,50d08uq,106,4541.799999998882,1,0.5,,1,1,0.5,2,1,LR,20,W,NA
5,3,3,4,,,,,3,2,1,0,50d08uq,107,1512.2999999988824,2,-0.5,,1,2,0.5,1,1,LR,20,W,NA
5,3,3,4,,,,,3,2,1,0,50d08uq,107,3484.9000000003725,5,0.5,,1,NA,1.5,2,1,LR,20,W,NA
3,6,3,3,,,,,3,1,2,0,50d08uq,108,5171.10000000149,5,0.5,,0,NA,3.5,1,0,LR,20,W,NA
3,6,3,3,,,,,3,1,2,0,50d08uq,108,7006.5,2,-0.5,,0,2,-0.5,2,1,LR,20,W,NA
4,6,5,4,,,,,0,3,2,1,yv2y82c,1,2244.2999999998137,5,0.5,,1,NA,1.5,1,1,DH,29,M,NA
4,6,5,4,,,,,0,3,2,1,yv2y82c,1,3940.9000000003725,2,0.5,,0,2,0.5,2,0,DH,29,M,NA
2,4,4,5,,,,,3,2,1,0,yv2y82c,2,3811.199999999255,1,0.5,,1,1,-1.5,1,0,DH,29,M,NA
2,4,4,5,,,,,3,2,1,0,yv2y82c,2,3113.7000000001863,5,-0.5,,0,NA,-3.5,2,1,DH,29,M,NA
1,5,3,2,,,,,2,1,0,3,yv2y82c,3,1992.300000000745,5,-0.5,,0,NA,0.5,1,0,DH,29,M,NA
1,5,3,2,,,,,2,1,0,3,yv2y82c,3,3333.5,4,0.5,,0,2,3.5,2,0,DH,29,M,NA
5,2,5,3,,,,,1,3,0,2,yv2y82c,4,3034.2999999998137,5,-0.5,,0,NA,-1.5,1,1,DH,29,M,NA
5,2,5,3,,,,,1,3,0,2,yv2y82c,4,1941.5,1,0.5,,1,1,0.5,2,1,DH,29,M,NA
3,4,4,3,,,,,0,2,1,3,yv2y82c,5,1913.6000000005588,2,0.5,,1,2,0.5,1,1,DH,29,M,NA
3,4,4,3,,,,,0,2,1,3,yv2y82c,5,2486.4000000003725,5,0.5,,1,NA,0.5,2,1,DH,29,M,NA
4,5,4,5,,,,,1,2,0,3,yv2y82c,6,1954.5,4,-0.5,,0,2,-0.5,1,1,DH,29,M,NA
4,5,4,5,,,,,1,2,0,3,yv2y82c,6,2263.0999999996275,2,-0.5,,0,2,-1.5,2,1,DH,29,M,NA
5,4,3,3,,,,,3,1,0,2,yv2y82c,7,1544.2999999998137,5,-0.5,,1,NA,2.5,1,1,DH,29,M,NA
5,4,3,3,,,,,3,1,0,2,yv2y82c,7,5767.5,4,-0.5,,0,2,0.5,2,0,DH,29,M,NA
5,4,3,5,,,,,2,3,1,0,yv2y82c,8,1096.1000000005588,1,-0.5,,1,1,1.5,1,1,DH,29,M,NA
5,4,3,5,,,,,2,3,1,0,yv2y82c,8,2773.4000000003725,2,-0.5,,1,2,-0.5,2,0,DH,29,M,NA
4,4,4,4,,,,,2,0,1,3,yv2y82c,9,2627.4000000003725,2,0.5,,1,2,0.5,1,1,DH,29,M,NA
4,4,4,4,,,,,2,0,1,3,yv2y82c,9,1973.0999999996275,1,-0.5,,0,1,-0.5,2,1,DH,29,M,NA
4,5,2,4,,,,,1,3,2,0,yv2y82c,10,1684.2999999998137,3,0.5,,1,1,3.5,1,1,DH,29,M,NA
4,5,2,4,,,,,1,3,2,0,yv2y82c,10,4859,5,-0.5,,1,NA,2.5,2,1,DH,29,M,NA
3,4,5,2,,,,,0,1,2,3,yv2y82c,11,1655.199999999255,1,0.5,,0,1,-1.5,1,1,DH,29,M,NA
3,4,5,2,,,,,0,1,2,3,yv2y82c,11,2166.399999999441,3,0.5,,0,1,-0.5,2,1,DH,29,M,NA
3,2,5,6,,,,,2,0,3,1,yv2y82c,12,1274.5,2,0.5,,0,2,-2.5,1,1,DH,29,M,NA
3,2,5,6,,,,,2,0,3,1,yv2y82c,12,1221.5,4,-0.5,,0,2,-4.5,2,1,DH,29,M,NA
3,6,3,4,,,,,0,2,3,1,yv2y82c,13,1128.2000000001863,4,-0.5,,1,2,1.5,1,1,DH,29,M,NA
3,6,3,4,,,,,0,2,3,1,yv2y82c,13,2389.5999999996275,5,-0.5,,1,NA,1.5,2,1,DH,29,M,NA
3,4,1,2,,,,,2,3,0,1,yv2y82c,14,1990.1000000005588,5,0.5,,1,NA,4.5,1,1,DH,29,M,NA
3,4,1,2,,,,,2,3,0,1,yv2y82c,14,1590.5999999996275,1,0.5,,1,1,2.5,2,1,DH,29,M,NA
4,4,2,5,,,,,1,0,3,2,yv2y82c,15,2413.5,5,-0.5,,1,NA,0.5,1,1,DH,29,M,NA
4,4,2,5,,,,,1,0,3,2,yv2y82c,15,1547.9000000003725,3,-0.5,,1,1,1.5,2,1,DH,29,M,NA
4,4,1,4,,,,,3,1,2,0,yv2y82c,16,1497.7999999998137,3,0.5,,1,1,3.5,1,1,DH,29,M,NA
4,4,1,4,,,,,3,1,2,0,yv2y82c,16,2040.6000000005588,4,0.5,,1,2,0.5,2,1,DH,29,M,NA
2,6,5,2,,,,,0,3,1,2,yv2y82c,17,1699,1,-0.5,,0,1,-3.5,1,1,DH,29,M,NA
2,6,5,2,,,,,0,3,1,2,yv2y82c,17,5543.5,5,0.5,,1,NA,1.5,2,1,DH,29,M,NA
4,5,3,4,,,,,3,0,2,1,yv2y82c,18,3916.4000000003725,2,0.5,,1,2,0.5,1,1,DH,29,M,NA
4,5,3,4,,,,,3,0,2,1,yv2y82c,18,3272.4000000003725,3,-0.5,,1,1,1.5,2,1,DH,29,M,NA
4,5,5,4,,,,,3,0,1,2,yv2y82c,19,1364.7999999998137,3,0.5,,1,1,0.5,1,1,DH,29,M,NA
4,5,5,4,,,,,3,0,1,2,yv2y82c,19,1917.2000000001863,5,0.5,,1,NA,0.5,2,1,DH,29,M,NA
4,5,4,6,,,,,0,1,3,2,yv2y82c,20,1178,4,0.5,,0,2,-0.5,1,1,DH,29,M,NA
4,5,4,6,,,,,0,1,3,2,yv2y82c,20,3591.399999999441,5,-0.5,,0,NA,-1.5,2,1,DH,29,M,NA
3,4,5,3,,,,,2,1,3,0,yv2y82c,21,1146.9000000003725,3,0.5,,0,1,-0.5,1,1,DH,29,M,NA
3,4,5,3,,,,,2,1,3,0,yv2y82c,21,2902.7000000001863,5,0.5,,0,NA,-0.5,2,1,DH,29,M,NA
3,4,2,5,,,,,3,2,0,1,yv2y82c,22,1416.2999999998137,3,0.5,,1,1,2.5,1,1,DH,29,M,NA
3,4,2,5,,,,,3,2,0,1,yv2y82c,22,2053.199999999255,1,0.5,,1,1,1.5,2,1,DH,29,M,NA
1,3,4,4,,,,,1,0,2,3,yv2y82c,23,4728.299999999814,5,0.5,,1,NA,-3.5,1,0,DH,29,M,NA
1,3,4,4,,,,,1,0,2,3,yv2y82c,23,1448.2000000001863,2,0.5,,0,2,-2.5,2,1,DH,29,M,NA
3,2,2,2,,,,,1,2,3,0,yv2y82c,24,1944.8999999994412,1,-0.5,,1,1,0.5,1,1,DH,29,M,NA
3,2,2,2,,,,,1,2,3,0,yv2y82c,24,1847.8999999994412,5,0.5,,1,NA,1.5,2,1,DH,29,M,NA
3,5,3,0,,,,,1,2,3,0,yv2y82c,25,2042.2999999998137,5,0.5,,1,NA,5.5,1,1,DH,29,M,NA
3,5,3,0,,,,,1,2,3,0,yv2y82c,25,1656.0999999996275,4,0.5,,1,2,5.5,2,1,DH,29,M,NA
4,5,5,5,,,,,2,3,0,1,yv2y82c,26,2047.9000000003725,1,-0.5,,0,1,-1.5,1,1,DH,29,M,NA
4,5,5,5,,,,,2,3,0,1,yv2y82c,26,4360.5999999996275,4,-0.5,,0,2,-0.5,2,1,DH,29,M,NA
6,2,5,4,,,,,0,1,3,2,yv2y82c,27,4536.700000000186,3,0.5,,0,1,-2.5,1,1,DH,29,M,NA
6,2,5,4,,,,,0,1,3,2,yv2y82c,27,1192.1000000005588,2,-0.5,,1,2,1.5,2,1,DH,29,M,NA
4,2,6,2,,,,,3,0,2,1,yv2y82c,28,3883.199999999255,5,-0.5,,1,NA,-2.5,1,0,DH,29,M,NA
4,2,6,2,,,,,3,0,2,1,yv2y82c,28,2485.2000000001863,2,0.5,,1,2,2.5,2,1,DH,29,M,NA
2,4,2,3,,,,,1,3,2,0,yv2y82c,29,4836.299999999814,5,0.5,,1,NA,1.5,1,1,DH,29,M,NA
2,4,2,3,,,,,1,3,2,0,yv2y82c,29,3147.7000000001863,1,0.5,,1,1,0.5,2,1,DH,29,M,NA
3,3,5,3,,,,,0,2,1,3,yv2y82c,30,3006.2000000001863,5,0.5,,1,NA,-1.5,1,0,DH,29,M,NA
3,3,5,3,,,,,0,2,1,3,yv2y82c,30,2550.0999999996275,3,-0.5,,0,1,-2.5,2,1,DH,29,M,NA
3,3,4,4,,,,,2,1,0,3,yv2y82c,31,3003.9000000003725,2,-0.5,,0,2,-1.5,1,1,DH,29,M,NA
3,3,4,4,,,,,2,1,0,3,yv2y82c,31,3206.199999999255,5,-0.5,,0,NA,-2.5,2,1,DH,29,M,NA
2,5,5,3,,,,,2,0,3,1,yv2y82c,32,2958.4000000003725,4,0.5,,1,2,2.5,1,1,DH,29,M,NA
2,5,5,3,,,,,2,0,3,1,yv2y82c,32,9911.799999999814,1,-0.5,,0,1,-3.5,2,1,DH,29,M,NA
5,5,5,4,,,,,3,1,2,0,yv2y82c,33,2701.0999999996275,4,0.5,,1,2,1.5,1,1,DH,29,M,NA
5,5,5,4,,,,,3,1,2,0,yv2y82c,33,1438.5,5,0.5,,1,NA,1.5,2,1,DH,29,M,NA
3,5,5,5,,,,,2,0,1,3,yv2y82c,34,1442.7000000001863,2,-0.5,,0,2,-2.5,1,1,DH,29,M,NA
3,5,5,5,,,,,2,0,1,3,yv2y82c,34,2326.7000000001863,5,-0.5,,0,NA,-2.5,2,1,DH,29,M,NA
4,5,4,4,,,,,3,0,1,2,yv2y82c,35,2148.7999999998137,4,-0.5,,1,2,0.5,1,1,DH,29,M,NA
4,5,4,4,,,,,3,0,1,2,yv2y82c,35,2920.7999999998137,3,0.5,,1,1,1.5,2,1,DH,29,M,NA
2,6,3,4,,,,,1,0,2,3,yv2y82c,36,2960,5,-0.5,,1,NA,0.5,1,1,DH,29,M,NA
2,6,3,4,,,,,1,0,2,3,yv2y82c,36,2439.7000000001863,3,-0.5,,1,1,2.5,2,1,DH,29,M,NA
5,4,4,4,,,,,3,2,0,1,yv2y82c,37,5277.799999999814,1,0.5,,1,1,1.5,1,1,DH,29,M,NA
5,4,4,4,,,,,3,2,0,1,yv2y82c,37,2310.7999999998137,5,0.5,,1,NA,1.5,2,1,DH,29,M,NA
6,2,2,3,,,,,0,1,2,3,yv2y82c,38,1377.8999999994412,1,0.5,,1,1,4.5,1,1,DH,29,M,NA
6,2,2,3,,,,,0,1,2,3,yv2y82c,38,2025.2999999998137,5,-0.5,,1,NA,2.5,2,1,DH,29,M,NA
6,3,3,3,,,,,1,2,0,3,yv2y82c,39,885.3000000007451,1,-0.5,,1,1,2.5,1,1,DH,29,M,NA
6,3,3,3,,,,,1,2,0,3,yv2y82c,39,3109.7999999998137,4,-0.5,,0,2,-0.5,2,1,DH,29,M,NA
3,3,5,2,,,,,2,1,3,0,yv2y82c,40,2988.7999999998137,5,-0.5,,0,NA,-1.5,1,1,DH,29,M,NA
3,3,5,2,,,,,2,1,3,0,yv2y82c,40,1974.5,2,-0.5,,1,2,0.5,2,1,DH,29,M,NA
3,5,4,4,,,,,2,3,1,0,yv2y82c,41,1744.7999999998137,2,0.5,,0,2,-0.5,1,1,DH,29,M,NA
3,5,4,4,,,,,2,3,1,0,yv2y82c,41,1702.2999999998137,5,-0.5,,0,NA,-0.5,2,1,DH,29,M,NA
3,5,3,4,,,,,3,1,0,2,yv2y82c,42,6172.199999999255,5,-0.5,,0,NA,0.5,1,0,DH,29,M,NA
3,5,3,4,,,,,3,1,0,2,yv2y82c,42,1061.5,4,-0.5,,1,2,0.5,2,1,DH,29,M,NA
2,4,5,3,,,,,0,3,1,2,yv2y82c,43,1268,1,-0.5,,0,1,-3.5,1,1,DH,29,M,NA
2,4,5,3,,,,,0,3,1,2,yv2y82c,43,1430.300000000745,3,-0.5,,0,1,-1.5,2,1,DH,29,M,NA
4,3,3,5,,,,,1,3,0,2,yv2y82c,44,1631.7000000001863,4,0.5,,0,2,-1.5,1,1,DH,29,M,NA
4,3,3,5,,,,,1,3,0,2,yv2y82c,44,1030.0999999996275,1,0.5,,1,1,1.5,2,1,DH,29,M,NA
3,4,5,4,,,,,0,2,3,1,yv2y82c,45,2637.5,3,0.5,,1,1,-0.5,1,0,DH,29,M,NA
3,4,5,4,,,,,0,2,3,1,yv2y82c,45,3477.7999999998137,5,-0.5,,0,NA,-2.5,2,1,DH,29,M,NA
4,3,3,3,,,,,0,3,2,1,yv2y82c,46,4503,5,0.5,,1,NA,1.5,1,1,DH,29,M,NA
4,3,3,3,,,,,0,3,2,1,yv2y82c,46,2293.7000000001863,3,-0.5,,0,1,-0.5,2,1,DH,29,M,NA
4,1,5,2,,,,,3,2,1,0,yv2y82c,47,989.7000000001863,2,0.5,,1,2,2.5,1,1,DH,29,M,NA
4,1,5,2,,,,,3,2,1,0,yv2y82c,47,1669.6000000005588,1,-0.5,,1,1,-1.5,2,0,DH,29,M,NA
3,3,4,4,,,,,1,0,3,2,yv2y82c,48,1257.7000000001863,4,-0.5,,0,2,-1.5,1,1,DH,29,M,NA
3,3,4,4,,,,,1,0,3,2,yv2y82c,48,1014.6999999992549,5,0.5,,0,NA,-1.5,2,1,DH,29,M,NA
6,4,4,2,,,,,0,2,3,1,yv2y82c,49,1144.800000000745,2,0.5,,1,2,4.5,1,1,DH,29,M,NA
6,4,4,2,,,,,0,2,3,1,yv2y82c,49,1704.7999999998137,5,0.5,,1,NA,4.5,2,1,DH,29,M,NA
4,4,4,4,,,,,1,3,0,2,yv2y82c,50,2137.899999999441,5,-0.5,,0,NA,-0.5,1,1,DH,29,M,NA
4,4,4,4,,,,,1,3,0,2,yv2y82c,50,1268.7000000001863,2,-0.5,,0,2,-0.5,2,1,DH,29,M,NA
4,3,2,5,,,,,1,0,3,2,yv2y82c,51,1342.1000000005588,3,-0.5,,1,1,0.5,1,1,DH,29,M,NA
4,3,2,5,,,,,1,0,3,2,yv2y82c,51,4565.899999999441,4,-0.5,,0,2,-2.5,2,1,DH,29,M,NA
4,3,3,4,,,,,0,3,2,1,yv2y82c,52,1831.2999999998137,5,0.5,,1,NA,0.5,1,1,DH,29,M,NA
4,3,3,4,,,,,0,3,2,1,yv2y82c,52,1558.3999999994412,1,0.5,,1,1,1.5,2,1,DH,29,M,NA
2,2,6,4,,,,,2,3,0,1,yv2y82c,53,1047.2000000001863,3,-0.5,,0,1,-4.5,1,1,DH,29,M,NA
2,2,6,4,,,,,2,3,0,1,yv2y82c,53,901.6999999992549,5,-0.5,,0,NA,-6.5,2,1,DH,29,M,NA
4,6,3,6,,,,,3,2,1,0,yv2y82c,54,6511.699999999255,5,-0.5,,1,NA,0.5,1,1,DH,29,M,NA
4,6,3,6,,,,,3,2,1,0,yv2y82c,54,1400.5,3,-0.5,,1,1,2.5,2,1,DH,29,M,NA
4,4,3,5,,,,,0,2,1,3,yv2y82c,55,7680.199999999255,5,0.5,,1,NA,0.5,1,1,DH,29,M,NA
4,4,3,5,,,,,0,2,1,3,yv2y82c,55,1545.5999999996275,3,-0.5,,1,1,0.5,2,1,DH,29,M,NA
4,4,3,6,,,,,1,2,0,3,yv2y82c,56,1782.4000000003725,1,-0.5,,1,1,0.5,1,1,DH,29,M,NA
4,4,3,6,,,,,1,2,0,3,yv2y82c,56,918.1000000005588,2,-0.5,,0,2,-2.5,2,1,DH,29,M,NA
4,4,4,3,,,,,3,0,1,2,yv2y82c,57,8399.900000000373,5,-0.5,,0,NA,0.5,1,0,DH,29,M,NA
4,4,4,3,,,,,3,0,1,2,yv2y82c,57,3911.5999999996275,1,0.5,,1,1,0.5,2,1,DH,29,M,NA
5,3,3,1,,,,,3,1,2,0,yv2y82c,58,2425.4000000003725,3,-0.5,,1,1,-0.5,1,0,DH,29,M,NA
5,3,3,1,,,,,3,1,2,0,yv2y82c,58,856.0999999996275,1,-0.5,,1,1,1.5,2,1,DH,29,M,NA
5,4,4,4,,,,,0,3,1,2,yv2y82c,59,2289.7000000001863,3,0.5,,1,1,0.5,1,1,DH,29,M,NA
5,4,4,4,,,,,0,3,1,2,yv2y82c,59,1287.300000000745,5,-0.5,,1,NA,0.5,2,1,DH,29,M,NA
4,3,2,4,,,,,1,3,2,0,yv2y82c,60,2363.5,5,0.5,,1,NA,1.5,1,1,DH,29,M,NA
4,3,2,4,,,,,1,3,2,0,yv2y82c,60,1624.2000000001863,4,-0.5,,0,2,-1.5,2,1,DH,29,M,NA
2,4,3,4,,,,,2,0,1,3,yv2y82c,61,2134.300000000745,5,-0.5,,0,NA,-1.5,1,1,DH,29,M,NA
2,4,3,4,,,,,2,0,1,3,yv2y82c,61,2039.2000000001863,4,-0.5,,0,2,-0.5,2,1,DH,29,M,NA
4,2,3,3,,,,,0,1,2,3,yv2y82c,62,2005.7999999998137,1,-0.5,,0,1,0.5,1,0,DH,29,M,NA
4,2,3,3,,,,,0,1,2,3,yv2y82c,62,1990.5999999996275,5,-0.5,,0,NA,-0.5,2,1,DH,29,M,NA
4,4,4,4,,,,,2,3,1,0,yv2y82c,63,1885,2,0.5,,1,2,0.5,1,1,DH,29,M,NA
4,4,4,4,,,,,2,3,1,0,yv2y82c,63,1350.1000000005588,5,-0.5,,0,NA,-0.5,2,1,DH,29,M,NA
2,3,4,1,,,,,3,0,2,1,yv2y82c,64,5874.200000000186,5,0.5,,0,NA,0.5,1,0,DH,29,M,NA
2,3,4,1,,,,,3,0,2,1,yv2y82c,64,3671.5999999996275,1,-0.5,,0,1,-2.5,2,1,DH,29,M,NA
2,4,6,5,,,,,2,0,3,1,yv2y82c,65,1866.7000000001863,4,0.5,,0,2,-0.5,1,1,DH,29,M,NA
2,4,6,5,,,,,2,0,3,1,yv2y82c,65,1224.5,5,0.5,,0,NA,-4.5,2,1,DH,29,M,NA
2,3,2,5,,,,,3,1,0,2,yv2y82c,66,5851.700000000186,5,0.5,,1,NA,-1.5,1,0,DH,29,M,NA
2,3,2,5,,,,,3,1,0,2,yv2y82c,66,1466.9000000003725,2,-0.5,,0,2,-3.5,2,1,DH,29,M,NA
4,1,3,3,,,,,1,2,3,0,yv2y82c,67,2008.5,4,-0.5,,0,2,-2.5,1,1,DH,29,M,NA
4,1,3,3,,,,,1,2,3,0,yv2y82c,67,2003.9000000003725,3,0.5,,0,1,-1.5,2,1,DH,29,M,NA
4,3,4,4,,,,,3,2,0,1,yv2y82c,68,1153.2000000001863,3,-0.5,,0,1,-1.5,1,1,DH,29,M,NA
4,3,4,4,,,,,3,2,0,1,yv2y82c,68,1383.2000000001863,2,-0.5,,0,2,-0.5,2,1,DH,29,M,NA
2,3,6,3,,,,,2,1,0,3,yv2y82c,69,1719.6000000005588,4,-0.5,,0,2,-0.5,1,1,DH,29,M,NA
2,3,6,3,,,,,2,1,0,3,yv2y82c,69,6986.4000000003725,5,0.5,,0,NA,-3.5,2,1,DH,29,M,NA
5,5,4,5,,,,,0,1,3,2,yv2y82c,70,2113,4,0.5,,1,2,0.5,1,1,DH,29,M,NA
5,5,4,5,,,,,0,1,3,2,yv2y82c,70,1765.5,2,-0.5,,0,2,-0.5,2,1,DH,29,M,NA
3,5,5,0,,,,,2,1,3,0,yv2y82c,71,2248.4000000003725,2,-0.5,,1,2,2.5,1,1,DH,29,M,NA
3,5,5,0,,,,,2,1,3,0,yv2y82c,71,1241.7000000001863,3,-0.5,,0,1,-0.5,2,1,DH,29,M,NA
4,4,4,2,,,,,1,0,2,3,yv2y82c,72,934,2,-0.5,,1,2,1.5,1,1,DH,29,M,NA
4,4,4,2,,,,,1,0,2,3,yv2y82c,72,1655.5,4,-0.5,,1,2,1.5,2,1,DH,29,M,NA
3,5,3,4,,,,,2,1,3,0,yv2y82c,73,2652.7000000011176,4,-0.5,,1,2,0.5,1,1,DH,29,M,NA
3,5,3,4,,,,,2,1,3,0,yv2y82c,73,2598.5999999996275,2,0.5,,1,2,-0.5,2,0,DH,29,M,NA
3,3,2,4,,,,,3,0,2,1,yv2y82c,74,2172,5,0.5,,1,NA,0.5,1,1,DH,29,M,NA
3,3,2,4,,,,,3,0,2,1,yv2y82c,74,2630.0999999996275,3,0.5,,1,1,1.5,2,1,DH,29,M,NA
3,5,3,2,,,,,1,2,3,0,yv2y82c,75,3267,1,-0.5,,0,1,-0.5,1,1,DH,29,M,NA
3,5,3,2,,,,,1,2,3,0,yv2y82c,75,2198.5999999996275,5,0.5,,1,NA,3.5,2,1,DH,29,M,NA
3,3,5,5,,,,,1,3,0,2,yv2y82c,76,1487,3,0.5,,0,1,-1.5,1,1,DH,29,M,NA
3,3,5,5,,,,,1,3,0,2,yv2y82c,76,1620.9000000003725,4,0.5,,0,2,-1.5,2,1,DH,29,M,NA
0,2,4,3,,,,,1,3,2,0,yv2y82c,77,3595.2999999988824,4,0.5,,0,2,-0.5,1,1,DH,29,M,NA
0,2,4,3,,,,,1,3,2,0,yv2y82c,77,4119.199999999255,3,-0.5,,0,1,-2.5,2,1,DH,29,M,NA
2,4,2,4,,,,,2,3,0,1,yv2y82c,78,4623.89999999851,3,0.5,,1,1,2.5,1,1,DH,29,M,NA
2,4,2,4,,,,,2,3,0,1,yv2y82c,78,3462.2999999988824,1,-0.5,,0,1,-0.5,2,1,DH,29,M,NA
5,5,3,3,,,,,0,1,3,2,yv2y82c,79,1121.5,1,0.5,,1,1,2.5,1,1,DH,29,M,NA
5,5,3,3,,,,,0,1,3,2,yv2y82c,79,1077.300000000745,5,-0.5,,1,NA,3.5,2,1,DH,29,M,NA
2,3,6,4,,,,,1,0,3,2,yv2y82c,80,1362.3999999985099,3,-0.5,,0,1,-3.5,1,1,DH,29,M,NA
2,3,6,4,,,,,1,0,3,2,yv2y82c,80,3062.699999999255,5,0.5,,0,NA,-4.5,2,1,DH,29,M,NA
5,5,3,3,,,,,0,1,2,3,yv2y82c,81,890,2,-0.5,,1,2,1.5,1,1,DH,29,M,NA
5,5,3,3,,,,,0,1,2,3,yv2y82c,81,969.7999999988824,3,-0.5,,1,1,1.5,2,1,DH,29,M,NA
1,4,6,5,,,,,3,0,1,2,yv2y82c,82,1558.699999999255,4,0.5,,0,2,-0.5,1,1,DH,29,M,NA
1,4,6,5,,,,,3,0,1,2,yv2y82c,82,2202.9000000003725,5,0.5,,0,NA,-5.5,2,1,DH,29,M,NA
4,5,4,6,,,,,3,2,0,1,yv2y82c,83,1260.9000000003725,2,0.5,,0,2,-1.5,1,1,DH,29,M,NA
4,5,4,6,,,,,3,2,0,1,yv2y82c,83,1605.5,4,0.5,,0,2,-0.5,2,1,DH,29,M,NA
2,5,3,4,,,,,3,1,2,0,yv2y82c,84,1233.3999999985099,5,0.5,,0,NA,0.5,1,0,DH,29,M,NA
2,5,3,4,,,,,3,1,2,0,yv2y82c,84,2566.699999999255,1,-0.5,,0,1,-1.5,2,1,DH,29,M,NA
4,4,6,4,,,,,1,2,0,3,yv2y82c,85,2179.199999999255,2,0.5,,1,2,0.5,1,1,DH,29,M,NA
4,4,6,4,,,,,1,2,0,3,yv2y82c,85,1301.5999999996275,5,0.5,,1,NA,-1.5,2,0,DH,29,M,NA
4,4,6,4,,,,,2,0,3,1,yv2y82c,86,3859.0999999996275,4,0.5,,1,2,0.5,1,1,DH,29,M,NA
4,4,6,4,,,,,2,0,3,1,yv2y82c,86,2807.5,5,-0.5,,0,NA,-2.5,2,1,DH,29,M,NA
3,4,4,5,,,,,2,3,1,0,yv2y82c,87,4344.0999999996275,3,0.5,,0,1,0.5,1,0,DH,29,M,NA
3,4,4,5,,,,,2,3,1,0,yv2y82c,87,2789.4000000003725,2,0.5,,1,2,-1.5,2,0,DH,29,M,NA
3,5,4,2,,,,,2,0,1,3,yv2y82c,88,2395.0999999996275,4,-0.5,,1,2,2.5,1,1,DH,29,M,NA
3,5,4,2,,,,,2,0,1,3,yv2y82c,88,3661.9000000003725,5,-0.5,,0,NA,1.5,2,0,DH,29,M,NA
4,2,3,5,,,,,0,3,2,1,yv2y82c,89,5850,1,0.5,,0,1,1.5,1,0,DH,29,M,NA
4,2,3,5,,,,,0,3,2,1,yv2y82c,89,1015,4,0.5,,0,2,-2.5,2,1,DH,29,M,NA
4,3,4,4,,,,,3,1,0,2,yv2y82c,90,2111.300000000745,5,0.5,,1,NA,-0.5,1,0,DH,29,M,NA
4,3,4,4,,,,,3,1,0,2,yv2y82c,90,1269.5,2,-0.5,,0,2,-0.5,2,1,DH,29,M,NA
1,5,1,3,,,,,0,2,3,1,yv2y82c,91,2255.7999999988824,5,-0.5,,1,NA,1.5,1,1,DH,29,M,NA
1,5,1,3,,,,,0,2,3,1,yv2y82c,91,999.5999999996275,3,-0.5,,1,1,3.5,2,1,DH,29,M,NA
3,3,4,3,,,,,0,2,1,3,yv2y82c,92,2903,5,-0.5,,1,NA,-1.5,1,0,DH,29,M,NA
3,3,4,3,,,,,0,2,1,3,yv2y82c,92,1622.4000000003725,4,-0.5,,1,2,-0.5,2,0,DH,29,M,NA
5,1,5,6,,,,,3,2,1,0,yv2y82c,93,1144.2000000011176,5,0.5,,0,NA,-4.5,1,1,DH,29,M,NA
5,1,5,6,,,,,3,2,1,0,yv2y82c,93,983.5,2,-0.5,,0,2,-1.5,2,1,DH,29,M,NA
5,3,5,5,,,,,0,3,1,2,yv2y82c,94,2009.9000000003725,2,0.5,,1,2,0.5,1,1,DH,29,M,NA
5,3,5,5,,,,,0,3,1,2,yv2y82c,94,3358.9000000003725,5,-0.5,,1,NA,-2.5,2,0,DH,29,M,NA
1,4,4,4,,,,,2,1,0,3,yv2y82c,95,3192.5,5,-0.5,,0,NA,-3.5,1,1,DH,29,M,NA
1,4,4,4,,,,,2,1,0,3,yv2y82c,95,2935.4000000003725,3,0.5,,0,1,0.5,2,0,DH,29,M,NA
0,4,4,6,,,,,1,0,2,3,yv2y82c,96,1276.4000000003725,1,0.5,,0,1,-3.5,1,1,DH,29,M,NA
0,4,4,6,,,,,1,0,2,3,yv2y82c,96,999.9000000003725,2,0.5,,0,2,-5.5,2,1,DH,29,M,NA
4,1,4,5,,,,,3,0,1,2,yv2y82c,97,2123.60000000149,1,0.5,,1,1,0.5,1,1,DH,29,M,NA
4,1,4,5,,,,,3,0,1,2,yv2y82c,97,1639.5999999996275,5,0.5,,1,NA,-3.5,2,0,DH,29,M,NA
3,4,4,3,,,,,3,0,2,1,yv2y82c,98,1344.1000000014901,3,0.5,,1,1,0.5,1,1,DH,29,M,NA
3,4,4,3,,,,,3,0,2,1,yv2y82c,98,1717,5,0.5,,1,NA,0.5,2,1,DH,29,M,NA
5,5,2,5,,,,,2,1,3,0,yv2y82c,99,1722.1000000014901,5,0.5,,1,NA,3.5,1,1,DH,29,M,NA
5,5,2,5,,,,,2,1,3,0,yv2y82c,99,1285.5999999996275,1,-0.5,,1,1,2.5,2,1,DH,29,M,NA
5,5,4,4,,,,,1,0,2,3,yv2y82c,100,2035.0999999996275,5,-0.5,,0,NA,1.5,1,0,DH,29,M,NA
5,5,4,4,,,,,1,0,2,3,yv2y82c,100,1912.6000000014901,4,0.5,,1,2,1.5,2,1,DH,29,M,NA
4,4,4,3,,,,,0,2,1,3,yv2y82c,101,2063.4000000003725,1,-0.5,,0,1,-0.5,1,1,DH,29,M,NA
4,4,4,3,,,,,0,2,1,3,yv2y82c,101,1591.0999999996275,3,-0.5,,0,1,-0.5,2,1,DH,29,M,NA
3,4,6,2,,,,,2,1,0,3,yv2y82c,102,1748.7999999988824,5,-0.5,,1,NA,-1.5,1,0,DH,29,M,NA
3,4,6,2,,,,,2,1,0,3,yv2y82c,102,2613.0999999996275,4,0.5,,1,2,2.5,2,1,DH,29,M,NA
1,3,5,5,,,,,1,3,2,0,yv2y82c,103,1291.4000000003725,3,0.5,,0,1,-1.5,1,1,DH,29,M,NA
1,3,5,5,,,,,1,3,2,0,yv2y82c,103,3208.4000000003725,5,-0.5,,0,NA,-6.5,2,1,DH,29,M,NA
3,5,3,4,,,,,0,1,2,3,yv2y82c,104,1473.5,2,0.5,,1,2,-0.5,1,0,DH,29,M,NA
3,5,3,4,,,,,0,1,2,3,yv2y82c,104,1197.5,1,0.5,,1,1,0.5,2,1,DH,29,M,NA
4,4,3,4,,,,,3,2,1,0,yv2y82c,105,2014.5,4,0.5,,1,2,0.5,1,1,DH,29,M,NA
4,4,3,4,,,,,3,2,1,0,yv2y82c,105,1110.9000000003725,1,0.5,,1,1,1.5,2,1,DH,29,M,NA
3,2,3,6,,,,,1,3,0,2,yv2y82c,106,1695.8999999985099,5,-0.5,,0,NA,-4.5,1,1,DH,29,M,NA
3,2,3,6,,,,,1,3,0,2,yv2y82c,106,1669.6000000014901,1,0.5,,1,1,0.5,2,1,DH,29,M,NA
5,3,3,4,,,,,1,0,3,2,yv2y82c,107,1371.9000000003725,2,-0.5,,0,2,0.5,1,0,DH,29,M,NA
5,3,3,4,,,,,1,0,3,2,yv2y82c,107,1607,5,0.5,,1,NA,1.5,2,1,DH,29,M,NA
3,6,3,3,,,,,1,2,3,0,yv2y82c,108,1386.800000000745,5,0.5,,1,NA,3.5,1,1,DH,29,M,NA
3,6,3,3,,,,,1,2,3,0,yv2y82c,108,2503.4000000003725,2,-0.5,,0,2,-0.5,2,1,DH,29,M,NA
6,4,5,4,,,,,3,1,0,2,c0d4om7,1,3919.10000000149,5,0.5,,1,NA,1.5,1,1,JM,30,W,NA
6,4,5,4,,,,,3,1,0,2,c0d4om7,1,10075.300000000745,4,0.5,,0,2,0.5,2,0,JM,30,W,NA
4,2,4,5,,,,,2,1,3,0,c0d4om7,2,3041.300000000745,3,0.5,,0,1,-1.5,1,1,JM,30,W,NA
4,2,4,5,,,,,2,1,3,0,c0d4om7,2,7434.199999999255,5,-0.5,,0,NA,-3.5,2,1,JM,30,W,NA
5,1,3,2,,,,,1,0,3,2,c0d4om7,3,3662.300000000745,5,-0.5,,1,NA,0.5,1,1,JM,30,W,NA
5,1,3,2,,,,,1,0,3,2,c0d4om7,3,6603.800000000745,2,0.5,,1,2,3.5,2,1,JM,30,W,NA
2,5,5,3,,,,,2,1,0,3,c0d4om7,4,1159.3999999985099,5,-0.5,,0,NA,-1.5,1,1,JM,30,W,NA
2,5,5,3,,,,,2,1,0,3,c0d4om7,4,8251.39999999851,3,0.5,,1,1,0.5,2,1,JM,30,W,NA
4,3,4,3,,,,,3,1,2,0,c0d4om7,5,6031.5,4,0.5,,1,2,0.5,1,1,JM,30,W,NA
4,3,4,3,,,,,3,1,2,0,c0d4om7,5,8700.39999999851,5,0.5,,1,NA,0.5,2,1,JM,30,W,NA
5,4,4,5,,,,,2,0,1,3,c0d4om7,6,10437.900000002235,2,-0.5,,0,2,-0.5,1,1,JM,30,W,NA
5,4,4,5,,,,,2,0,1,3,c0d4om7,6,6952.79999999702,4,-0.5,,1,2,-1.5,2,0,JM,30,W,NA
4,5,3,3,,,,,2,3,1,0,c0d4om7,7,3395.39999999851,5,-0.5,,1,NA,2.5,1,1,JM,30,W,NA
4,5,3,3,,,,,2,3,1,0,c0d4om7,7,4451.10000000149,2,-0.5,,1,2,0.5,2,1,JM,30,W,NA
4,5,3,5,,,,,3,2,1,0,c0d4om7,8,7676.5,3,-0.5,,0,1,1.5,1,0,JM,30,W,NA
4,5,3,5,,,,,3,2,1,0,c0d4om7,8,3807.599999997765,4,-0.5,,1,2,-0.5,2,0,JM,30,W,NA
4,4,4,4,,,,,3,0,1,2,c0d4om7,9,2836,4,0.5,,0,2,0.5,1,0,JM,30,W,NA
4,4,4,4,,,,,3,0,1,2,c0d4om7,9,2995.800000000745,3,-0.5,,0,1,-0.5,2,1,JM,30,W,NA
5,4,2,4,,,,,0,3,2,1,c0d4om7,10,1103,1,0.5,,1,1,3.5,1,1,JM,30,W,NA
5,4,2,4,,,,,0,3,2,1,c0d4om7,10,1277,5,-0.5,,1,NA,2.5,2,1,JM,30,W,NA
4,3,5,2,,,,,0,3,1,2,c0d4om7,11,2353.300000000745,3,0.5,,0,1,-1.5,1,1,JM,30,W,NA
4,3,5,2,,,,,0,3,1,2,c0d4om7,11,2446.400000002235,1,0.5,,1,1,-0.5,2,0,JM,30,W,NA
2,3,5,6,,,,,2,3,0,1,c0d4om7,12,917.2999999970198,4,0.5,,0,2,-2.5,1,1,JM,30,W,NA
2,3,5,6,,,,,2,3,0,1,c0d4om7,12,1725.4000000022352,2,-0.5,,0,2,-4.5,2,1,JM,30,W,NA
6,3,3,4,,,,,3,2,0,1,c0d4om7,13,1260.300000000745,2,-0.5,,1,2,1.5,1,1,JM,30,W,NA
6,3,3,4,,,,,3,2,0,1,c0d4om7,13,6605,5,-0.5,,1,NA,1.5,2,1,JM,30,W,NA
4,3,1,2,,,,,3,0,2,1,c0d4om7,14,1020.3000000007451,5,0.5,,1,NA,4.5,1,1,JM,30,W,NA
4,3,1,2,,,,,3,0,2,1,c0d4om7,14,1084.300000000745,3,0.5,,0,1,2.5,2,0,JM,30,W,NA
4,4,2,5,,,,,1,2,3,0,c0d4om7,15,6729.10000000149,5,-0.5,,1,NA,0.5,1,1,JM,30,W,NA
4,4,2,5,,,,,1,2,3,0,c0d4om7,15,3820,1,-0.5,,1,1,1.5,2,1,JM,30,W,NA
4,4,1,4,,,,,1,2,0,3,c0d4om7,16,885.1000000014901,1,0.5,,0,1,3.5,1,0,JM,30,W,NA
4,4,1,4,,,,,1,2,0,3,c0d4om7,16,8044.20000000298,2,0.5,,0,2,0.5,2,0,JM,30,W,NA
6,2,5,2,,,,,0,1,3,2,c0d4om7,17,4435.39999999851,3,-0.5,,0,1,-3.5,1,1,JM,30,W,NA
6,2,5,2,,,,,0,1,3,2,c0d4om7,17,3964.39999999851,5,0.5,,1,NA,1.5,2,1,JM,30,W,NA
5,4,3,4,,,,,0,2,3,1,c0d4om7,18,9800.099999997765,4,0.5,,0,2,0.5,1,0,JM,30,W,NA
5,4,3,4,,,,,0,2,3,1,c0d4om7,18,1116.5,1,-0.5,,1,1,1.5,2,1,JM,30,W,NA
5,4,5,4,,,,,0,2,1,3,c0d4om7,19,2999.89999999851,1,0.5,,1,1,0.5,1,1,JM,30,W,NA
5,4,5,4,,,,,0,2,1,3,c0d4om7,19,4539.599999997765,5,0.5,,1,NA,0.5,2,1,JM,30,W,NA
5,4,4,6,,,,,1,0,2,3,c0d4om7,20,1853.9000000022352,2,0.5,,0,2,-0.5,1,1,JM,30,W,NA
5,4,4,6,,,,,1,0,2,3,c0d4om7,20,9276,5,-0.5,,0,NA,-1.5,2,1,JM,30,W,NA
4,3,5,3,,,,,1,3,0,2,c0d4om7,21,3109.60000000149,1,0.5,,0,1,-0.5,1,1,JM,30,W,NA
4,3,5,3,,,,,1,3,0,2,c0d4om7,21,9962.60000000149,5,0.5,,0,NA,-0.5,2,1,JM,30,W,NA
4,3,2,5,,,,,1,3,2,0,c0d4om7,22,2139.300000000745,1,0.5,,1,1,2.5,1,1,JM,30,W,NA
4,3,2,5,,,,,1,3,2,0,c0d4om7,22,3095.300000000745,3,0.5,,1,1,1.5,2,1,JM,30,W,NA
3,1,4,4,,,,,2,0,3,1,c0d4om7,23,1004.8000000007451,5,0.5,,0,NA,-3.5,1,1,JM,30,W,NA
3,1,4,4,,,,,2,0,3,1,c0d4om7,23,1210.3999999985099,4,0.5,,0,2,-2.5,2,1,JM,30,W,NA
2,3,2,2,,,,,0,1,2,3,c0d4om7,24,2074.2999999970198,3,-0.5,,1,1,0.5,1,1,JM,30,W,NA
2,3,2,2,,,,,0,1,2,3,c0d4om7,24,2284.199999999255,5,0.5,,1,NA,1.5,2,1,JM,30,W,NA
5,3,3,0,,,,,2,0,3,1,c0d4om7,25,1148.300000000745,5,0.5,,1,NA,5.5,1,1,JM,30,W,NA
5,3,3,0,,,,,2,0,3,1,c0d4om7,25,924.3000000007451,2,0.5,,1,2,5.5,2,1,JM,30,W,NA
5,4,5,5,,,,,1,2,0,3,c0d4om7,26,3018.5,3,-0.5,,0,1,-1.5,1,1,JM,30,W,NA
5,4,5,5,,,,,1,2,0,3,c0d4om7,26,1180.2999999970198,2,-0.5,,1,2,-0.5,2,0,JM,30,W,NA
2,6,5,4,,,,,0,1,3,2,c0d4om7,27,1908.7999999970198,1,0.5,,0,1,-2.5,1,1,JM,30,W,NA
2,6,5,4,,,,,0,1,3,2,c0d4om7,27,2893.300000000745,4,-0.5,,1,2,1.5,2,1,JM,30,W,NA
2,4,6,2,,,,,3,1,2,0,c0d4om7,28,4946,5,-0.5,,0,NA,-2.5,1,1,JM,30,W,NA
2,4,6,2,,,,,3,1,2,0,c0d4om7,28,7708.5,4,0.5,,0,2,2.5,2,0,JM,30,W,NA
4,2,2,3,,,,,0,3,1,2,c0d4om7,29,1224.800000000745,5,0.5,,1,NA,1.5,1,1,JM,30,W,NA
4,2,2,3,,,,,0,3,1,2,c0d4om7,29,1513.6000000014901,3,0.5,,1,1,0.5,2,1,JM,30,W,NA
3,3,5,3,,,,,3,1,0,2,c0d4om7,30,5262.39999999851,5,0.5,,0,NA,-1.5,1,1,JM,30,W,NA
3,3,5,3,,,,,3,1,0,2,c0d4om7,30,2235.300000000745,1,-0.5,,0,1,-2.5,2,1,JM,30,W,NA
3,3,4,4,,,,,3,2,0,1,c0d4om7,31,1735,4,-0.5,,0,2,-1.5,1,1,JM,30,W,NA
3,3,4,4,,,,,3,2,0,1,c0d4om7,31,3291.39999999851,5,-0.5,,0,NA,-2.5,2,1,JM,30,W,NA
5,2,5,3,,,,,3,0,1,2,c0d4om7,32,3796.199999999255,2,0.5,,1,2,2.5,1,1,JM,30,W,NA
5,2,5,3,,,,,3,0,1,2,c0d4om7,32,1245.199999999255,3,-0.5,,0,1,-3.5,2,1,JM,30,W,NA
5,5,5,4,,,,,0,2,3,1,c0d4om7,33,6637.5,2,0.5,,1,2,1.5,1,1,JM,30,W,NA
5,5,5,4,,,,,0,2,3,1,c0d4om7,33,10507.29999999702,5,0.5,,1,NA,1.5,2,1,JM,30,W,NA
5,3,5,5,,,,,1,3,2,0,c0d4om7,34,2768.400000002235,4,-0.5,,0,2,-2.5,1,1,JM,30,W,NA
5,3,5,5,,,,,1,3,2,0,c0d4om7,34,3789.599999997765,5,-0.5,,0,NA,-2.5,2,1,JM,30,W,NA
5,4,4,4,,,,,1,0,2,3,c0d4om7,35,11962.699999999255,2,-0.5,,0,2,0.5,1,0,JM,30,W,NA
5,4,4,4,,,,,1,0,2,3,c0d4om7,35,1400.2999999970198,1,0.5,,1,1,1.5,2,1,JM,30,W,NA
6,2,3,4,,,,,1,0,3,2,c0d4om7,36,6473.099999997765,5,-0.5,,0,NA,0.5,1,0,JM,30,W,NA
6,2,3,4,,,,,1,0,3,2,c0d4om7,36,1259.199999999255,1,-0.5,,0,1,2.5,2,0,JM,30,W,NA
4,5,4,4,,,,,2,0,1,3,c0d4om7,37,3030.599999997765,3,0.5,,1,1,1.5,1,1,JM,30,W,NA
4,5,4,4,,,,,2,0,1,3,c0d4om7,37,5483.5,5,0.5,,1,NA,1.5,2,1,JM,30,W,NA
2,6,2,3,,,,,2,1,3,0,c0d4om7,38,4585.199999999255,3,0.5,,1,1,4.5,1,1,JM,30,W,NA
2,6,2,3,,,,,2,1,3,0,c0d4om7,38,5035.199999999255,5,-0.5,,1,NA,2.5,2,1,JM,30,W,NA
3,6,3,3,,,,,0,3,2,1,c0d4om7,39,1930.0999999977648,3,-0.5,,1,1,2.5,1,1,JM,30,W,NA
3,6,3,3,,,,,0,3,2,1,c0d4om7,39,3402.60000000149,2,-0.5,,0,2,-0.5,2,1,JM,30,W,NA
3,3,5,2,,,,,1,3,0,2,c0d4om7,40,8556.10000000149,5,-0.5,,0,NA,-1.5,1,1,JM,30,W,NA
3,3,5,2,,,,,1,3,0,2,c0d4om7,40,4440.39999999851,4,-0.5,,1,2,0.5,2,1,JM,30,W,NA
5,3,4,4,,,,,2,1,0,3,c0d4om7,41,2546.39999999851,4,0.5,,0,2,-0.5,1,1,JM,30,W,NA
5,3,4,4,,,,,2,1,0,3,c0d4om7,41,1339.3999999985099,5,-0.5,,1,NA,-0.5,2,0,JM,30,W,NA
5,3,3,4,,,,,1,2,3,0,c0d4om7,42,9834.199999999255,5,-0.5,,1,NA,0.5,1,1,JM,30,W,NA
5,3,3,4,,,,,1,2,3,0,c0d4om7,42,6383.89999999851,2,-0.5,,1,2,0.5,2,1,JM,30,W,NA
4,2,5,3,,,,,0,2,1,3,c0d4om7,43,6874.5,3,-0.5,,0,1,-3.5,1,1,JM,30,W,NA
4,2,5,3,,,,,0,2,1,3,c0d4om7,43,1740.5,1,-0.5,,1,1,-1.5,2,0,JM,30,W,NA
3,4,3,5,,,,,2,3,0,1,c0d4om7,44,2176.699999999255,2,0.5,,0,2,-1.5,1,1,JM,30,W,NA
3,4,3,5,,,,,2,3,0,1,c0d4om7,44,1995.1000000014901,3,0.5,,1,1,1.5,2,1,JM,30,W,NA
4,3,5,4,,,,,3,2,1,0,c0d4om7,45,4927.39999999851,1,0.5,,1,1,-0.5,1,0,JM,30,W,NA
4,3,5,4,,,,,3,2,1,0,c0d4om7,45,1674.5,5,-0.5,,0,NA,-2.5,2,1,JM,30,W,NA
3,4,3,3,,,,,3,0,2,1,c0d4om7,46,3258.39999999851,5,0.5,,1,NA,1.5,1,1,JM,30,W,NA
3,4,3,3,,,,,3,0,2,1,c0d4om7,46,3100.599999997765,1,-0.5,,0,1,-0.5,2,1,JM,30,W,NA
1,4,5,2,,,,,0,1,2,3,c0d4om7,47,2702.199999999255,4,0.5,,1,2,2.5,1,1,JM,30,W,NA
1,4,5,2,,,,,0,1,2,3,c0d4om7,47,1843.2000000029802,3,-0.5,,0,1,-1.5,2,1,JM,30,W,NA
3,3,4,4,,,,,2,3,1,0,c0d4om7,48,1724.699999999255,2,-0.5,,0,2,-1.5,1,1,JM,30,W,NA
3,3,4,4,,,,,2,3,1,0,c0d4om7,48,1529.300000000745,5,0.5,,0,NA,-1.5,2,1,JM,30,W,NA
4,6,4,2,,,,,2,0,1,3,c0d4om7,49,1453.5,4,0.5,,1,2,4.5,1,1,JM,30,W,NA
4,6,4,2,,,,,2,0,1,3,c0d4om7,49,1161.5999999977648,5,0.5,,1,NA,4.5,2,1,JM,30,W,NA
4,4,4,4,,,,,2,1,0,3,c0d4om7,50,2184.099999997765,5,-0.5,,0,NA,-0.5,1,1,JM,30,W,NA
4,4,4,4,,,,,2,1,0,3,c0d4om7,50,4715.5,4,-0.5,,0,2,-0.5,2,1,JM,30,W,NA
3,4,2,5,,,,,0,2,1,3,c0d4om7,51,1292.5,1,-0.5,,0,1,0.5,1,0,JM,30,W,NA
3,4,2,5,,,,,0,2,1,3,c0d4om7,51,2425.400000002235,2,-0.5,,0,2,-2.5,2,1,JM,30,W,NA
3,4,3,4,,,,,0,1,3,2,c0d4om7,52,3467.10000000149,5,0.5,,1,NA,0.5,1,1,JM,30,W,NA
3,4,3,4,,,,,0,1,3,2,c0d4om7,52,2236.199999999255,3,0.5,,1,1,1.5,2,1,JM,30,W,NA
2,2,6,4,,,,,0,3,2,1,c0d4om7,53,1225.300000000745,1,-0.5,,0,1,-4.5,1,1,JM,30,W,NA
2,2,6,4,,,,,0,3,2,1,c0d4om7,53,1179.5,5,-0.5,,0,NA,-6.5,2,1,JM,30,W,NA
6,4,3,6,,,,,1,0,3,2,c0d4om7,54,2766.39999999851,5,-0.5,,1,NA,0.5,1,1,JM,30,W,NA
6,4,3,6,,,,,1,0,3,2,c0d4om7,54,16361.699999999255,1,-0.5,,0,1,2.5,2,0,JM,30,W,NA
4,4,3,5,,,,,3,2,1,0,c0d4om7,55,7358.60000000149,5,0.5,,1,NA,0.5,1,1,JM,30,W,NA
4,4,3,5,,,,,3,2,1,0,c0d4om7,55,5800.300000000745,1,-0.5,,0,1,0.5,2,0,JM,30,W,NA
4,4,3,6,,,,,2,3,1,0,c0d4om7,56,2289.2000000029802,3,-0.5,,0,1,0.5,1,0,JM,30,W,NA
4,4,3,6,,,,,2,3,1,0,c0d4om7,56,973,4,-0.5,,0,2,-2.5,2,1,JM,30,W,NA
4,4,4,3,,,,,0,1,2,3,c0d4om7,57,813.0999999977648,5,-0.5,,1,NA,0.5,1,1,JM,30,W,NA
4,4,4,3,,,,,0,1,2,3,c0d4om7,57,3093.400000002235,3,0.5,,1,1,0.5,2,1,JM,30,W,NA
3,5,3,1,,,,,3,1,0,2,c0d4om7,58,1882.4000000022352,1,-0.5,,0,1,-0.5,1,1,JM,30,W,NA
3,5,3,1,,,,,3,1,0,2,c0d4om7,58,5456.199999999255,3,-0.5,,1,1,1.5,2,1,JM,30,W,NA
4,5,4,4,,,,,1,2,0,3,c0d4om7,59,3401.5,1,0.5,,1,1,0.5,1,1,JM,30,W,NA
4,5,4,4,,,,,1,2,0,3,c0d4om7,59,3419.400000002235,5,-0.5,,1,NA,0.5,2,1,JM,30,W,NA
3,4,2,4,,,,,2,1,3,0,c0d4om7,60,5101.699999999255,5,0.5,,0,NA,1.5,1,0,JM,30,W,NA
3,4,2,4,,,,,2,1,3,0,c0d4om7,60,1033.3999999985099,2,-0.5,,0,2,-1.5,2,1,JM,30,W,NA
4,2,3,4,,,,,1,3,0,2,c0d4om7,61,1581.300000000745,5,-0.5,,1,NA,-1.5,1,0,JM,30,W,NA
4,2,3,4,,,,,1,3,0,2,c0d4om7,61,1138.300000000745,2,-0.5,,0,2,-0.5,2,1,JM,30,W,NA
2,4,3,3,,,,,3,0,1,2,c0d4om7,62,3397.39999999851,3,-0.5,,0,1,0.5,1,0,JM,30,W,NA
2,4,3,3,,,,,3,0,1,2,c0d4om7,62,7963.199999999255,5,-0.5,,0,NA,-0.5,2,1,JM,30,W,NA
4,4,4,4,,,,,3,1,2,0,c0d4om7,63,1507.9000000022352,4,0.5,,1,2,0.5,1,1,JM,30,W,NA
4,4,4,4,,,,,3,1,2,0,c0d4om7,63,1197.0999999977648,5,-0.5,,0,NA,-0.5,2,1,JM,30,W,NA
3,2,4,1,,,,,3,0,2,1,c0d4om7,64,6696.60000000149,5,0.5,,1,NA,0.5,1,1,JM,30,W,NA
3,2,4,1,,,,,3,0,2,1,c0d4om7,64,1705.6000000014901,3,-0.5,,0,1,-2.5,2,1,JM,30,W,NA
4,2,6,5,,,,,1,2,3,0,c0d4om7,65,1560,2,0.5,,0,2,-0.5,1,1,JM,30,W,NA
4,2,6,5,,,,,1,2,3,0,c0d4om7,65,3211.099999997765,5,0.5,,0,NA,-4.5,2,1,JM,30,W,NA
3,2,2,5,,,,,3,2,0,1,c0d4om7,66,1899.5,5,0.5,,0,NA,-1.5,1,1,JM,30,W,NA
3,2,2,5,,,,,3,2,0,1,c0d4om7,66,2093.199999999255,4,-0.5,,0,2,-3.5,2,1,JM,30,W,NA
1,4,3,3,,,,,1,3,2,0,c0d4om7,67,1165.6000000014901,2,-0.5,,0,2,-2.5,1,1,JM,30,W,NA
1,4,3,3,,,,,1,3,2,0,c0d4om7,67,1082.1000000014901,1,0.5,,0,1,-1.5,2,1,JM,30,W,NA
3,4,4,4,,,,,0,2,3,1,c0d4om7,68,1352.5,1,-0.5,,0,1,-1.5,1,1,JM,30,W,NA
3,4,4,4,,,,,0,2,3,1,c0d4om7,68,3209.60000000149,4,-0.5,,0,2,-0.5,2,1,JM,30,W,NA
3,2,6,3,,,,,1,0,2,3,c0d4om7,69,3218.2000000029802,2,-0.5,,0,2,-0.5,1,1,JM,30,W,NA
3,2,6,3,,,,,1,0,2,3,c0d4om7,69,3628.10000000149,5,0.5,,0,NA,-3.5,2,1,JM,30,W,NA
5,5,4,5,,,,,2,0,3,1,c0d4om7,70,4528.5,2,0.5,,0,2,0.5,1,0,JM,30,W,NA
5,5,4,5,,,,,2,0,3,1,c0d4om7,70,1724.699999999255,4,-0.5,,0,2,-0.5,2,1,JM,30,W,NA
5,3,5,0,,,,,0,3,1,2,c0d4om7,71,1051.300000000745,4,-0.5,,1,2,2.5,1,1,JM,30,W,NA
5,3,5,0,,,,,0,3,1,2,c0d4om7,71,1406.199999999255,1,-0.5,,0,1,-0.5,2,1,JM,30,W,NA
4,4,4,2,,,,,2,3,0,1,c0d4om7,72,4410.5,4,-0.5,,1,2,1.5,1,1,JM,30,W,NA
4,4,4,2,,,,,2,3,0,1,c0d4om7,72,7641.300000000745,2,-0.5,,1,2,1.5,2,1,JM,30,W,NA
5,3,3,4,,,,,1,0,2,3,c0d4om7,73,1066.2000000029802,2,-0.5,,1,2,0.5,1,1,JM,30,W,NA
5,3,3,4,,,,,1,0,2,3,c0d4om7,73,6746.400000002235,4,0.5,,0,2,-0.5,2,1,JM,30,W,NA
3,3,2,4,,,,,0,1,3,2,c0d4om7,74,2567.10000000149,5,0.5,,1,NA,0.5,1,1,JM,30,W,NA
3,3,2,4,,,,,0,1,3,2,c0d4om7,74,4220.699999999255,1,0.5,,1,1,1.5,2,1,JM,30,W,NA
5,3,3,2,,,,,2,3,0,1,c0d4om7,75,1351.0999999977648,3,-0.5,,1,1,-0.5,1,0,JM,30,W,NA
5,3,3,2,,,,,2,3,0,1,c0d4om7,75,3532.5,5,0.5,,1,NA,3.5,2,1,JM,30,W,NA
3,3,5,5,,,,,2,1,0,3,c0d4om7,76,1834.300000000745,1,0.5,,0,1,-1.5,1,1,JM,30,W,NA
3,3,5,5,,,,,2,1,0,3,c0d4om7,76,1930.699999999255,2,0.5,,0,2,-1.5,2,1,JM,30,W,NA
2,0,4,3,,,,,3,0,1,2,c0d4om7,77,3714.5,2,0.5,,1,2,-0.5,1,0,JM,30,W,NA
2,0,4,3,,,,,3,0,1,2,c0d4om7,77,1326.3999999985099,1,-0.5,,0,1,-2.5,2,1,JM,30,W,NA
4,2,2,4,,,,,1,2,3,0,c0d4om7,78,1610.1000000014901,1,0.5,,1,1,2.5,1,1,JM,30,W,NA
4,2,2,4,,,,,1,2,3,0,c0d4om7,78,2557.60000000149,3,-0.5,,0,1,-0.5,2,1,JM,30,W,NA
5,5,3,3,,,,,2,1,3,0,c0d4om7,79,6742.5,3,0.5,,0,1,2.5,1,0,JM,30,W,NA
5,5,3,3,,,,,2,1,3,0,c0d4om7,79,2649,5,-0.5,,0,NA,3.5,2,0,JM,30,W,NA
3,2,6,4,,,,,3,1,2,0,c0d4om7,80,3027.400000002235,1,-0.5,,0,1,-3.5,1,1,JM,30,W,NA
3,2,6,4,,,,,3,1,2,0,c0d4om7,80,1287.5,5,0.5,,0,NA,-4.5,2,1,JM,30,W,NA
5,5,3,3,,,,,3,0,2,1,c0d4om7,81,2717.199999999255,4,-0.5,,1,2,1.5,1,1,JM,30,W,NA
5,5,3,3,,,,,3,0,2,1,c0d4om7,81,1195.9000000022352,1,-0.5,,1,1,1.5,2,1,JM,30,W,NA
4,1,6,5,,,,,0,3,1,2,c0d4om7,82,3311.5,2,0.5,,0,2,-0.5,1,1,JM,30,W,NA
4,1,6,5,,,,,0,3,1,2,c0d4om7,82,2761.7000000029802,5,0.5,,0,NA,-5.5,2,1,JM,30,W,NA
5,4,4,6,,,,,0,2,3,1,c0d4om7,83,1149.0999999977648,4,0.5,,0,2,-1.5,1,1,JM,30,W,NA
5,4,4,6,,,,,0,2,3,1,c0d4om7,83,1293.300000000745,2,0.5,,0,2,-0.5,2,1,JM,30,W,NA
5,2,3,4,,,,,3,2,1,0,c0d4om7,84,1054,5,0.5,,1,NA,0.5,1,1,JM,30,W,NA
5,2,3,4,,,,,3,2,1,0,c0d4om7,84,1549.4000000022352,3,-0.5,,0,1,-1.5,2,1,JM,30,W,NA
4,4,6,4,,,,,3,2,0,1,c0d4om7,85,1109.1000000014901,4,0.5,,0,2,0.5,1,0,JM,30,W,NA
4,4,6,4,,,,,3,2,0,1,c0d4om7,85,939.5,5,0.5,,0,NA,-1.5,2,1,JM,30,W,NA
4,4,6,4,,,,,2,3,1,0,c0d4om7,86,1482,2,0.5,,0,2,0.5,1,0,JM,30,W,NA
4,4,6,4,,,,,2,3,1,0,c0d4om7,86,408.69999999925494,5,-0.5,,0,NA,-2.5,2,1,JM,30,W,NA
4,3,4,5,,,,,1,0,3,2,c0d4om7,87,2460.300000000745,1,0.5,,0,1,0.5,1,0,JM,30,W,NA
4,3,4,5,,,,,1,0,3,2,c0d4om7,87,4956.60000000149,4,0.5,,0,2,-1.5,2,1,JM,30,W,NA
5,3,4,2,,,,,2,0,3,1,c0d4om7,88,2473.699999999255,2,-0.5,,1,2,2.5,1,1,JM,30,W,NA
5,3,4,2,,,,,2,0,3,1,c0d4om7,88,4271.5,5,-0.5,,1,NA,1.5,2,1,JM,30,W,NA
2,4,3,5,,,,,1,3,0,2,c0d4om7,89,1305.2999999970198,3,0.5,,0,1,1.5,1,0,JM,30,W,NA
2,4,3,5,,,,,1,3,0,2,c0d4om7,89,1168.0999999977648,2,0.5,,0,2,-2.5,2,1,JM,30,W,NA
3,4,4,4,,,,,2,0,1,3,c0d4om7,90,825,5,0.5,,0,NA,-0.5,1,1,JM,30,W,NA
3,4,4,4,,,,,2,0,1,3,c0d4om7,90,1308.7000000029802,4,-0.5,,1,2,-0.5,2,0,JM,30,W,NA
5,1,1,3,,,,,0,2,1,3,c0d4om7,91,1383.300000000745,5,-0.5,,0,NA,1.5,1,0,JM,30,W,NA
5,1,1,3,,,,,0,2,1,3,c0d4om7,91,2314.199999999255,1,-0.5,,1,1,3.5,2,1,JM,30,W,NA
3,3,4,3,,,,,3,1,0,2,c0d4om7,92,785.6000000014901,5,-0.5,,0,NA,-1.5,1,1,JM,30,W,NA
3,3,4,3,,,,,3,1,0,2,c0d4om7,92,2823.7000000029802,2,-0.5,,0,2,-0.5,2,1,JM,30,W,NA
1,5,5,6,,,,,1,2,0,3,c0d4om7,93,2662.5,5,0.5,,0,NA,-4.5,1,1,JM,30,W,NA
1,5,5,6,,,,,1,2,0,3,c0d4om7,93,1736.1000000014901,4,-0.5,,0,2,-1.5,2,1,JM,30,W,NA
3,5,5,5,,,,,0,3,2,1,c0d4om7,94,1578,4,0.5,,1,2,0.5,1,1,JM,30,W,NA
3,5,5,5,,,,,0,3,2,1,c0d4om7,94,4667.800000000745,5,-0.5,,0,NA,-2.5,2,1,JM,30,W,NA
4,1,4,4,,,,,1,3,2,0,c0d4om7,95,1748,5,-0.5,,0,NA,-3.5,1,1,JM,30,W,NA
4,1,4,4,,,,,1,3,2,0,c0d4om7,95,5484.800000000745,1,0.5,,1,1,0.5,2,1,JM,30,W,NA
4,0,4,6,,,,,0,1,2,3,c0d4om7,96,2358.60000000149,3,0.5,,0,1,-3.5,1,1,JM,30,W,NA
4,0,4,6,,,,,0,1,2,3,c0d4om7,96,1003.2999999970198,4,0.5,,0,2,-5.5,2,1,JM,30,W,NA
1,4,4,5,,,,,2,0,3,1,c0d4om7,97,1408.199999999255,3,0.5,,0,1,0.5,1,0,JM,30,W,NA
1,4,4,5,,,,,2,0,3,1,c0d4om7,97,1028.3999999985099,5,0.5,,0,NA,-3.5,2,1,JM,30,W,NA
4,3,4,3,,,,,3,1,2,0,c0d4om7,98,1218,1,0.5,,1,1,0.5,1,1,JM,30,W,NA
4,3,4,3,,,,,3,1,2,0,c0d4om7,98,1740.4000000022352,5,0.5,,1,NA,0.5,2,1,JM,30,W,NA
5,5,2,5,,,,,2,3,0,1,c0d4om7,99,1567.199999999255,5,0.5,,1,NA,3.5,1,1,JM,30,W,NA
5,5,2,5,,,,,2,3,0,1,c0d4om7,99,1995.300000000745,3,-0.5,,0,1,2.5,2,0,JM,30,W,NA
5,5,4,4,,,,,3,2,1,0,c0d4om7,100,2358.400000002235,5,-0.5,,1,NA,1.5,1,1,JM,30,W,NA
5,5,4,4,,,,,3,2,1,0,c0d4om7,100,1051.2999999970198,2,0.5,,1,2,1.5,2,1,JM,30,W,NA
4,4,4,3,,,,,2,0,1,3,c0d4om7,101,2335.10000000149,3,-0.5,,0,1,-0.5,1,1,JM,30,W,NA
4,4,4,3,,,,,2,0,1,3,c0d4om7,101,1292.5,1,-0.5,,0,1,-0.5,2,1,JM,30,W,NA
4,3,6,2,,,,,3,0,2,1,c0d4om7,102,1152.3999999985099,5,-0.5,,0,NA,-1.5,1,1,JM,30,W,NA
4,3,6,2,,,,,3,0,2,1,c0d4om7,102,1052.699999999255,2,0.5,,0,2,2.5,2,0,JM,30,W,NA
3,1,5,5,,,,,0,2,1,3,c0d4om7,103,1627.199999999255,1,0.5,,0,1,-1.5,1,1,JM,30,W,NA
3,1,5,5,,,,,0,2,1,3,c0d4om7,103,941.3000000007451,5,-0.5,,0,NA,-6.5,2,1,JM,30,W,NA
5,3,3,4,,,,,1,3,0,2,c0d4om7,104,6275.300000000745,4,0.5,,0,2,-0.5,1,1,JM,30,W,NA
5,3,3,4,,,,,1,3,0,2,c0d4om7,104,3611.199999999255,3,0.5,,1,1,0.5,2,1,JM,30,W,NA
4,4,3,4,,,,,3,0,1,2,c0d4om7,105,1373.3999999985099,2,0.5,,1,2,0.5,1,1,JM,30,W,NA
4,4,3,4,,,,,3,0,1,2,c0d4om7,105,1086.5,3,0.5,,1,1,1.5,2,1,JM,30,W,NA
2,3,3,6,,,,,0,3,2,1,c0d4om7,106,1277.3999999985099,5,-0.5,,0,NA,-4.5,1,1,JM,30,W,NA
2,3,3,6,,,,,0,3,2,1,c0d4om7,106,3705.099999997765,3,0.5,,1,1,0.5,2,1,JM,30,W,NA
3,5,3,4,,,,,3,2,0,1,c0d4om7,107,1669.800000000745,4,-0.5,,1,2,0.5,1,1,JM,30,W,NA
3,5,3,4,,,,,3,2,0,1,c0d4om7,107,1212.5,5,0.5,,1,NA,1.5,2,1,JM,30,W,NA
6,3,3,3,,,,,1,3,2,0,c0d4om7,108,2377.39999999851,5,0.5,,1,NA,3.5,1,1,JM,30,W,NA
6,3,3,3,,,,,1,3,2,0,c0d4om7,108,2105.900000002235,4,-0.5,,0,2,-0.5,2,1,JM,30,W,NA
6,4,5,4,,,,,2,3,0,1,xyzxycd,1,3367.10000000149,5,0.5,,1,NA,1.5,1,1,EK,21,W,NA
6,4,5,4,,,,,2,3,0,1,xyzxycd,1,2824.300000000745,4,0.5,,0,2,0.5,2,0,EK,21,W,NA
4,2,4,5,,,,,0,2,3,1,xyzxycd,2,2383.39999999851,3,0.5,,0,1,-1.5,1,1,EK,21,W,NA
4,2,4,5,,,,,0,2,3,1,xyzxycd,2,4444.300000000745,5,-0.5,,1,NA,-3.5,2,0,EK,21,W,NA
5,1,3,2,,,,,3,1,0,2,xyzxycd,3,3953.699999999255,5,-0.5,,1,NA,0.5,1,1,EK,21,W,NA
5,1,3,2,,,,,3,1,0,2,xyzxycd,3,3195,2,0.5,,0,2,3.5,2,0,EK,21,W,NA
2,5,5,3,,,,,0,2,1,3,xyzxycd,4,1524.800000000745,5,-0.5,,0,NA,-1.5,1,1,EK,21,W,NA
2,5,5,3,,,,,0,2,1,3,xyzxycd,4,2816,3,0.5,,1,1,0.5,2,1,EK,21,W,NA
4,3,4,3,,,,,0,3,1,2,xyzxycd,5,5502.300000000745,4,0.5,,1,2,0.5,1,1,EK,21,W,NA
4,3,4,3,,,,,0,3,1,2,xyzxycd,5,1181.199999999255,5,0.5,,0,NA,0.5,2,0,EK,21,W,NA
5,4,4,5,,,,,1,3,2,0,xyzxycd,6,3857.699999999255,2,-0.5,,0,2,-0.5,1,1,EK,21,W,NA
5,4,4,5,,,,,1,3,2,0,xyzxycd,6,6359.699999999255,4,-0.5,,0,2,-1.5,2,1,EK,21,W,NA
4,5,3,3,,,,,3,2,1,0,xyzxycd,7,686.1000000014901,5,-0.5,,1,NA,2.5,1,1,EK,21,W,NA
4,5,3,3,,,,,3,2,1,0,xyzxycd,7,2302.39999999851,2,-0.5,,1,2,0.5,2,1,EK,21,W,NA
4,5,3,5,,,,,1,0,2,3,xyzxycd,8,1528.4000000022352,3,-0.5,,1,1,1.5,1,1,EK,21,W,NA
4,5,3,5,,,,,1,0,2,3,xyzxycd,8,986.7999999970198,4,-0.5,,0,2,-0.5,2,1,EK,21,W,NA
4,4,4,4,,,,,0,1,2,3,xyzxycd,9,1608,4,0.5,,1,2,0.5,1,1,EK,21,W,NA
4,4,4,4,,,,,0,1,2,3,xyzxycd,9,2432.10000000149,3,-0.5,,0,1,-0.5,2,1,EK,21,W,NA
5,4,2,4,,,,,2,1,3,0,xyzxycd,10,759.6999999992549,1,0.5,,1,1,3.5,1,1,EK,21,W,NA
5,4,2,4,,,,,2,1,3,0,xyzxycd,10,1288.300000000745,5,-0.5,,1,NA,2.5,2,1,EK,21,W,NA
4,3,5,2,,,,,1,3,0,2,xyzxycd,11,827.2000000029802,3,0.5,,0,1,-1.5,1,1,EK,21,W,NA
4,3,5,2,,,,,1,3,0,2,xyzxycd,11,1102.9000000022352,1,0.5,,0,1,-0.5,2,1,EK,21,W,NA
2,3,5,6,,,,,3,2,0,1,xyzxycd,12,752.1999999992549,4,0.5,,0,2,-2.5,1,1,EK,21,W,NA
2,3,5,6,,,,,3,2,0,1,xyzxycd,12,844.8000000007451,2,-0.5,,0,2,-4.5,2,1,EK,21,W,NA
6,3,3,4,,,,,2,1,0,3,xyzxycd,13,2305.300000000745,2,-0.5,,1,2,1.5,1,1,EK,21,W,NA
6,3,3,4,,,,,2,1,0,3,xyzxycd,13,926.1999999992549,5,-0.5,,1,NA,1.5,2,1,EK,21,W,NA
4,3,1,2,,,,,2,3,1,0,xyzxycd,14,503.1000000014901,5,0.5,,1,NA,4.5,1,1,EK,21,W,NA
4,3,1,2,,,,,2,3,1,0,xyzxycd,14,2845.400000002235,3,0.5,,1,1,2.5,2,1,EK,21,W,NA
4,4,2,5,,,,,0,1,3,2,xyzxycd,15,403.1000000014901,5,-0.5,,1,NA,0.5,1,1,EK,21,W,NA
4,4,2,5,,,,,0,1,3,2,xyzxycd,15,1115.5,1,-0.5,,1,1,1.5,2,1,EK,21,W,NA
4,4,1,4,,,,,1,2,3,0,xyzxycd,16,1846.6000000014901,1,0.5,,0,1,3.5,1,0,EK,21,W,NA
4,4,1,4,,,,,1,2,3,0,xyzxycd,16,1085.5,2,0.5,,0,2,0.5,2,0,EK,21,W,NA
6,2,5,2,,,,,2,0,1,3,xyzxycd,17,919.5999999977648,3,-0.5,,0,1,-3.5,1,1,EK,21,W,NA
6,2,5,2,,,,,2,0,1,3,xyzxycd,17,1548.6000000014901,5,0.5,,1,NA,1.5,2,1,EK,21,W,NA
5,4,3,4,,,,,3,0,2,1,xyzxycd,18,791.5,4,0.5,,1,2,0.5,1,1,EK,21,W,NA
5,4,3,4,,,,,3,0,2,1,xyzxycd,18,590.8999999985099,1,-0.5,,1,1,1.5,2,1,EK,21,W,NA
5,4,5,4,,,,,3,0,1,2,xyzxycd,19,2147,1,0.5,,0,1,0.5,1,0,EK,21,W,NA
5,4,5,4,,,,,3,0,1,2,xyzxycd,19,2332.699999999255,5,0.5,,1,NA,0.5,2,1,EK,21,W,NA
5,4,4,6,,,,,1,0,3,2,xyzxycd,20,945.3999999985099,2,0.5,,1,2,-0.5,1,0,EK,21,W,NA
5,4,4,6,,,,,1,0,3,2,xyzxycd,20,1934.300000000745,5,-0.5,,0,NA,-1.5,2,1,EK,21,W,NA
4,3,5,3,,,,,0,3,2,1,xyzxycd,21,993,1,0.5,,1,1,-0.5,1,0,EK,21,W,NA
4,3,5,3,,,,,0,3,2,1,xyzxycd,21,3966.39999999851,5,0.5,,1,NA,-0.5,2,0,EK,21,W,NA
4,3,2,5,,,,,3,1,2,0,xyzxycd,22,1072.0999999977648,1,0.5,,1,1,2.5,1,1,EK,21,W,NA
4,3,2,5,,,,,3,1,2,0,xyzxycd,22,669.3000000007451,3,0.5,,1,1,1.5,2,1,EK,21,W,NA
3,1,4,4,,,,,2,0,3,1,xyzxycd,23,683.5,5,0.5,,0,NA,-3.5,1,1,EK,21,W,NA
3,1,4,4,,,,,2,0,3,1,xyzxycd,23,638.1000000014901,4,0.5,,0,2,-2.5,2,1,EK,21,W,NA
2,3,2,2,,,,,1,2,0,3,xyzxycd,24,2522.400000002235,3,-0.5,,0,1,0.5,1,0,EK,21,W,NA
2,3,2,2,,,,,1,2,0,3,xyzxycd,24,731.5,5,0.5,,1,NA,1.5,2,1,EK,21,W,NA
5,3,3,0,,,,,2,3,1,0,xyzxycd,25,509.5,5,0.5,,1,NA,5.5,1,1,EK,21,W,NA
5,3,3,0,,,,,2,3,1,0,xyzxycd,25,1198.699999999255,2,0.5,,1,2,5.5,2,1,EK,21,W,NA
5,4,5,5,,,,,3,2,0,1,xyzxycd,26,908.5,3,-0.5,,0,1,-1.5,1,1,EK,21,W,NA
5,4,5,5,,,,,3,2,0,1,xyzxycd,26,960.6000000014901,2,-0.5,,1,2,-0.5,2,0,EK,21,W,NA
2,6,5,4,,,,,0,3,2,1,xyzxycd,27,1250.8999999985099,1,0.5,,0,1,-2.5,1,1,EK,21,W,NA
2,6,5,4,,,,,0,3,2,1,xyzxycd,27,812.7999999970198,4,-0.5,,1,2,1.5,2,1,EK,21,W,NA
2,4,6,2,,,,,1,3,0,2,xyzxycd,28,1594.6000000014901,5,-0.5,,0,NA,-2.5,1,1,EK,21,W,NA
2,4,6,2,,,,,1,3,0,2,xyzxycd,28,696.2999999970198,4,0.5,,1,2,2.5,2,1,EK,21,W,NA
4,2,2,3,,,,,2,1,0,3,xyzxycd,29,417.69999999925494,5,0.5,,1,NA,1.5,1,1,EK,21,W,NA
4,2,2,3,,,,,2,1,0,3,xyzxycd,29,3245.800000000745,3,0.5,,0,1,0.5,2,0,EK,21,W,NA
3,3,5,3,,,,,0,2,1,3,xyzxycd,30,1411.8999999985099,5,0.5,,0,NA,-1.5,1,1,EK,21,W,NA
3,3,5,3,,,,,0,2,1,3,xyzxycd,30,461.29999999701977,1,-0.5,,1,1,-2.5,2,0,EK,21,W,NA
3,3,4,4,,,,,3,1,2,0,xyzxycd,31,1798.199999999255,4,-0.5,,1,2,-1.5,1,0,EK,21,W,NA
3,3,4,4,,,,,3,1,2,0,xyzxycd,31,830.8000000007451,5,-0.5,,0,NA,-2.5,2,1,EK,21,W,NA
5,2,5,3,,,,,0,1,2,3,xyzxycd,32,1007.4000000022352,2,0.5,,1,2,2.5,1,1,EK,21,W,NA
5,2,5,3,,,,,0,1,2,3,xyzxycd,32,1917.699999999255,3,-0.5,,0,1,-3.5,2,1,EK,21,W,NA
5,5,5,4,,,,,0,3,1,2,xyzxycd,33,898.0999999977648,2,0.5,,1,2,1.5,1,1,EK,21,W,NA
5,5,5,4,,,,,0,3,1,2,xyzxycd,33,813.6999999992549,5,0.5,,1,NA,1.5,2,1,EK,21,W,NA
5,3,5,5,,,,,1,3,2,0,xyzxycd,34,875.8999999985099,4,-0.5,,0,2,-2.5,1,1,EK,21,W,NA
5,3,5,5,,,,,1,3,2,0,xyzxycd,34,476.29999999701977,5,-0.5,,0,NA,-2.5,2,1,EK,21,W,NA
5,4,4,4,,,,,2,3,0,1,xyzxycd,35,842.6999999992549,2,-0.5,,1,2,0.5,1,1,EK,21,W,NA
5,4,4,4,,,,,2,3,0,1,xyzxycd,35,1132,1,0.5,,1,1,1.5,2,1,EK,21,W,NA
6,2,3,4,,,,,2,0,3,1,xyzxycd,36,590.8999999985099,5,-0.5,,0,NA,0.5,1,0,EK,21,W,NA
6,2,3,4,,,,,2,0,3,1,xyzxycd,36,906.1999999992549,1,-0.5,,1,1,2.5,2,1,EK,21,W,NA
4,5,4,4,,,,,1,0,3,2,xyzxycd,37,5107.199999999255,3,0.5,,0,1,1.5,1,0,EK,21,W,NA
4,5,4,4,,,,,1,0,3,2,xyzxycd,37,383.1000000014901,5,0.5,,1,NA,1.5,2,1,EK,21,W,NA
2,6,2,3,,,,,2,0,1,3,xyzxycd,38,3918.2000000029802,3,0.5,,0,1,4.5,1,0,EK,21,W,NA
2,6,2,3,,,,,2,0,1,3,xyzxycd,38,780.8000000007451,5,-0.5,,1,NA,2.5,2,1,EK,21,W,NA
3,6,3,3,,,,,3,0,1,2,xyzxycd,39,805,3,-0.5,,1,1,2.5,1,1,EK,21,W,NA
3,6,3,3,,,,,3,0,1,2,xyzxycd,39,1677.6000000014901,2,-0.5,,1,2,-0.5,2,0,EK,21,W,NA
3,3,5,2,,,,,1,2,3,0,xyzxycd,40,850.2000000029802,5,-0.5,,1,NA,-1.5,1,0,EK,21,W,NA
3,3,5,2,,,,,1,2,3,0,xyzxycd,40,556.3999999985099,4,-0.5,,1,2,0.5,2,1,EK,21,W,NA
5,3,4,4,,,,,3,0,2,1,xyzxycd,41,843.3999999985099,4,0.5,,1,2,-0.5,1,0,EK,21,W,NA
5,3,4,4,,,,,3,0,2,1,xyzxycd,41,477.69999999925494,5,-0.5,,1,NA,-0.5,2,0,EK,21,W,NA
5,3,3,4,,,,,3,1,0,2,xyzxycd,42,718.3000000007451,5,-0.5,,1,NA,0.5,1,1,EK,21,W,NA
5,3,3,4,,,,,3,1,0,2,xyzxycd,42,542.1000000014901,2,-0.5,,1,2,0.5,2,1,EK,21,W,NA
4,2,5,3,,,,,3,2,1,0,xyzxycd,43,1055,3,-0.5,,0,1,-3.5,1,1,EK,21,W,NA
4,2,5,3,,,,,3,2,1,0,xyzxycd,43,1103.800000000745,1,-0.5,,0,1,-1.5,2,1,EK,21,W,NA
3,4,3,5,,,,,1,0,2,3,xyzxycd,44,959.3999999985099,2,0.5,,0,2,-1.5,1,1,EK,21,W,NA
3,4,3,5,,,,,1,0,2,3,xyzxycd,44,2988.699999999255,3,0.5,,1,1,1.5,2,1,EK,21,W,NA
4,3,5,4,,,,,0,2,3,1,xyzxycd,45,2723.300000000745,1,0.5,,0,1,-0.5,1,1,EK,21,W,NA
4,3,5,4,,,,,0,2,3,1,xyzxycd,45,2720.199999999255,5,-0.5,,0,NA,-2.5,2,1,EK,21,W,NA
3,4,3,3,,,,,0,1,3,2,xyzxycd,46,1469.6000000014901,5,0.5,,1,NA,1.5,1,1,EK,21,W,NA
3,4,3,3,,,,,0,1,3,2,xyzxycd,46,774.6000000014901,1,-0.5,,1,1,-0.5,2,0,EK,21,W,NA
1,4,5,2,,,,,2,1,3,0,xyzxycd,47,1459.699999999255,4,0.5,,1,2,2.5,1,1,EK,21,W,NA
1,4,5,2,,,,,2,1,3,0,xyzxycd,47,943.1000000014901,3,-0.5,,0,1,-1.5,2,1,EK,21,W,NA
3,3,4,4,,,,,1,2,0,3,xyzxycd,48,2905.5,2,-0.5,,0,2,-1.5,1,1,EK,21,W,NA
3,3,4,4,,,,,1,2,0,3,xyzxycd,48,779.5,5,0.5,,1,NA,-1.5,2,0,EK,21,W,NA
4,6,4,2,,,,,3,2,1,0,xyzxycd,49,939.3000000007451,4,0.5,,1,2,4.5,1,1,EK,21,W,NA
4,6,4,2,,,,,3,2,1,0,xyzxycd,49,781.2999999970198,5,0.5,,1,NA,4.5,2,1,EK,21,W,NA
4,4,4,4,,,,,0,2,3,1,xyzxycd,50,1325.3999999985099,5,-0.5,,1,NA,-0.5,1,0,EK,21,W,NA
4,4,4,4,,,,,0,2,3,1,xyzxycd,50,856.5,4,-0.5,,1,2,-0.5,2,0,EK,21,W,NA
3,4,2,5,,,,,1,2,0,3,xyzxycd,51,1294.4000000022352,1,-0.5,,0,1,0.5,1,0,EK,21,W,NA
3,4,2,5,,,,,1,2,0,3,xyzxycd,51,1420.8999999985099,2,-0.5,,0,2,-2.5,2,1,EK,21,W,NA
3,4,3,4,,,,,1,0,3,2,xyzxycd,52,3362.099999997765,5,0.5,,1,NA,0.5,1,1,EK,21,W,NA
3,4,3,4,,,,,1,0,3,2,xyzxycd,52,1116.199999999255,3,0.5,,0,1,1.5,2,0,EK,21,W,NA
2,2,6,4,,,,,1,0,2,3,xyzxycd,53,927.8000000007451,1,-0.5,,0,1,-4.5,1,1,EK,21,W,NA
2,2,6,4,,,,,1,0,2,3,xyzxycd,53,462.19999999925494,5,-0.5,,0,NA,-6.5,2,1,EK,21,W,NA
6,4,3,6,,,,,2,0,1,3,xyzxycd,54,539.1000000014901,5,-0.5,,1,NA,0.5,1,1,EK,21,W,NA
6,4,3,6,,,,,2,0,1,3,xyzxycd,54,620.4000000022352,1,-0.5,,1,1,2.5,2,1,EK,21,W,NA
4,4,3,5,,,,,1,3,2,0,xyzxycd,55,688.8000000007451,5,0.5,,1,NA,0.5,1,1,EK,21,W,NA
4,4,3,5,,,,,1,3,2,0,xyzxycd,55,684.5,1,-0.5,,1,1,0.5,2,1,EK,21,W,NA
4,4,3,6,,,,,3,0,1,2,xyzxycd,56,970.3000000007451,3,-0.5,,1,1,0.5,1,1,EK,21,W,NA
4,4,3,6,,,,,3,0,1,2,xyzxycd,56,733.4000000022352,4,-0.5,,1,2,-2.5,2,0,EK,21,W,NA
4,4,4,3,,,,,0,2,1,3,xyzxycd,57,2736.5,5,-0.5,,1,NA,0.5,1,1,EK,21,W,NA
4,4,4,3,,,,,0,2,1,3,xyzxycd,57,1160.8999999985099,3,0.5,,1,1,0.5,2,1,EK,21,W,NA
3,5,3,1,,,,,1,2,3,0,xyzxycd,58,2997.10000000149,1,-0.5,,1,1,-0.5,1,0,EK,21,W,NA
3,5,3,1,,,,,1,2,3,0,xyzxycd,58,1004.1999999992549,3,-0.5,,1,1,1.5,2,1,EK,21,W,NA
4,5,4,4,,,,,2,1,0,3,xyzxycd,59,2085,1,0.5,,1,1,0.5,1,1,EK,21,W,NA
4,5,4,4,,,,,2,1,0,3,xyzxycd,59,1404.7999999970198,5,-0.5,,1,NA,0.5,2,1,EK,21,W,NA
3,4,2,4,,,,,3,1,0,2,xyzxycd,60,4858.300000000745,5,0.5,,0,NA,1.5,1,0,EK,21,W,NA
3,4,2,4,,,,,3,1,0,2,xyzxycd,60,3788.199999999255,2,-0.5,,0,2,-1.5,2,1,EK,21,W,NA
4,2,3,4,,,,,0,1,3,2,xyzxycd,61,1665.0999999977648,5,-0.5,,0,NA,-1.5,1,1,EK,21,W,NA
4,2,3,4,,,,,0,1,3,2,xyzxycd,61,1036.699999999255,2,-0.5,,0,2,-0.5,2,1,EK,21,W,NA
2,4,3,3,,,,,3,1,2,0,xyzxycd,62,1339.5,3,-0.5,,1,1,0.5,1,1,EK,21,W,NA
2,4,3,3,,,,,3,1,2,0,xyzxycd,62,953,5,-0.5,,0,NA,-0.5,2,1,EK,21,W,NA
4,4,4,4,,,,,2,3,0,1,xyzxycd,63,1541,4,0.5,,1,2,0.5,1,1,EK,21,W,NA
4,4,4,4,,,,,2,3,0,1,xyzxycd,63,461.30000000074506,5,-0.5,,1,NA,-0.5,2,0,EK,21,W,NA
3,2,4,1,,,,,2,3,1,0,xyzxycd,64,900.3999999985099,5,0.5,,0,NA,0.5,1,0,EK,21,W,NA
3,2,4,1,,,,,2,3,1,0,xyzxycd,64,793.3000000007451,3,-0.5,,0,1,-2.5,2,1,EK,21,W,NA
4,2,6,5,,,,,0,3,1,2,xyzxycd,65,953,2,0.5,,1,2,-0.5,1,0,EK,21,W,NA
4,2,6,5,,,,,0,3,1,2,xyzxycd,65,524.5999999977648,5,0.5,,0,NA,-4.5,2,1,EK,21,W,NA
3,2,2,5,,,,,2,0,3,1,xyzxycd,66,717,5,0.5,,0,NA,-1.5,1,1,EK,21,W,NA
3,2,2,5,,,,,2,0,3,1,xyzxycd,66,988.8000000007451,4,-0.5,,0,2,-3.5,2,1,EK,21,W,NA
1,4,3,3,,,,,3,0,2,1,xyzxycd,67,601.5,2,-0.5,,0,2,-2.5,1,1,EK,21,W,NA
1,4,3,3,,,,,3,0,2,1,xyzxycd,67,972.8000000007451,1,0.5,,0,1,-1.5,2,1,EK,21,W,NA
3,4,4,4,,,,,0,1,2,3,xyzxycd,68,685.1999999992549,1,-0.5,,0,1,-1.5,1,1,EK,21,W,NA
3,4,4,4,,,,,0,1,2,3,xyzxycd,68,941.1999999992549,4,-0.5,,1,2,-0.5,2,0,EK,21,W,NA
3,2,6,3,,,,,1,3,0,2,xyzxycd,69,2077.099999997765,2,-0.5,,1,2,-0.5,1,0,EK,21,W,NA
3,2,6,3,,,,,1,3,0,2,xyzxycd,69,7666.5,5,0.5,,0,NA,-3.5,2,1,EK,21,W,NA
5,5,4,5,,,,,0,3,2,1,xyzxycd,70,1725.2999999970198,2,0.5,,0,2,0.5,1,0,EK,21,W,NA
5,5,4,5,,,,,0,3,2,1,xyzxycd,70,1964.0999999977648,4,-0.5,,1,2,-0.5,2,0,EK,21,W,NA
5,3,5,0,,,,,3,2,0,1,xyzxycd,71,1232.199999999255,4,-0.5,,0,2,2.5,1,0,EK,21,W,NA
5,3,5,0,,,,,3,2,0,1,xyzxycd,71,544.3999999985099,1,-0.5,,0,1,-0.5,2,1,EK,21,W,NA
4,4,4,2,,,,,2,1,3,0,xyzxycd,72,2728.199999999255,4,-0.5,,1,2,1.5,1,1,EK,21,W,NA
4,4,4,2,,,,,2,1,3,0,xyzxycd,72,923.1000000014901,2,-0.5,,1,2,1.5,2,1,EK,21,W,NA
5,3,3,4,,,,,0,1,2,3,xyzxycd,73,746.7999999970198,2,-0.5,,1,2,0.5,1,1,EK,21,W,NA
5,3,3,4,,,,,0,1,2,3,xyzxycd,73,3180.5,4,0.5,,0,2,-0.5,2,1,EK,21,W,NA
3,3,2,4,,,,,3,2,0,1,xyzxycd,74,2799.39999999851,5,0.5,,0,NA,0.5,1,0,EK,21,W,NA
3,3,2,4,,,,,3,2,0,1,xyzxycd,74,1419.8999999985099,1,0.5,,0,1,1.5,2,0,EK,21,W,NA
5,3,3,2,,,,,2,0,3,1,xyzxycd,75,1740,3,-0.5,,0,1,-0.5,1,1,EK,21,W,NA
5,3,3,2,,,,,2,0,3,1,xyzxycd,75,780.5,5,0.5,,1,NA,3.5,2,1,EK,21,W,NA
3,3,5,5,,,,,3,1,2,0,xyzxycd,76,664.5,1,0.5,,0,1,-1.5,1,1,EK,21,W,NA
3,3,5,5,,,,,3,1,2,0,xyzxycd,76,794.1999999992549,2,0.5,,0,2,-1.5,2,1,EK,21,W,NA
2,0,4,3,,,,,2,3,0,1,xyzxycd,77,785,2,0.5,,0,2,-0.5,1,1,EK,21,W,NA
2,0,4,3,,,,,2,3,0,1,xyzxycd,77,652.1000000014901,1,-0.5,,0,1,-2.5,2,1,EK,21,W,NA
4,2,2,4,,,,,3,1,0,2,xyzxycd,78,585.3000000007451,1,0.5,,1,1,2.5,1,1,EK,21,W,NA
4,2,2,4,,,,,3,1,0,2,xyzxycd,78,657.1999999992549,3,-0.5,,0,1,-0.5,2,1,EK,21,W,NA
5,5,3,3,,,,,0,3,2,1,xyzxycd,79,732.5,3,0.5,,1,1,2.5,1,1,EK,21,W,NA
5,5,3,3,,,,,0,3,2,1,xyzxycd,79,460.8999999985099,5,-0.5,,1,NA,3.5,2,1,EK,21,W,NA
3,2,6,4,,,,,1,2,0,3,xyzxycd,80,943.1999999992549,1,-0.5,,0,1,-3.5,1,1,EK,21,W,NA
3,2,6,4,,,,,1,2,0,3,xyzxycd,80,4252.39999999851,5,0.5,,0,NA,-4.5,2,1,EK,21,W,NA
5,5,3,3,,,,,1,3,0,2,xyzxycd,81,624,4,-0.5,,1,2,1.5,1,1,EK,21,W,NA
5,5,3,3,,,,,1,3,0,2,xyzxycd,81,635.6999999992549,1,-0.5,,1,1,1.5,2,1,EK,21,W,NA
4,1,6,5,,,,,1,0,2,3,xyzxycd,82,1111.5,2,0.5,,0,2,-0.5,1,1,EK,21,W,NA
4,1,6,5,,,,,1,0,2,3,xyzxycd,82,398.6000000014901,5,0.5,,0,NA,-5.5,2,1,EK,21,W,NA
5,4,4,6,,,,,1,2,3,0,xyzxycd,83,637.5,4,0.5,,0,2,-1.5,1,1,EK,21,W,NA
5,4,4,6,,,,,1,2,3,0,xyzxycd,83,780.1999999992549,2,0.5,,0,2,-0.5,2,1,EK,21,W,NA
5,2,3,4,,,,,3,0,2,1,xyzxycd,84,2233.5,5,0.5,,1,NA,0.5,1,1,EK,21,W,NA
5,2,3,4,,,,,3,0,2,1,xyzxycd,84,698.5999999977648,3,-0.5,,0,1,-1.5,2,1,EK,21,W,NA
4,4,6,4,,,,,0,1,3,2,xyzxycd,85,1962.1000000014901,4,0.5,,1,2,0.5,1,1,EK,21,W,NA
4,4,6,4,,,,,0,1,3,2,xyzxycd,85,443.19999999925494,5,0.5,,0,NA,-1.5,2,1,EK,21,W,NA
4,4,6,4,,,,,0,2,3,1,xyzxycd,86,1597.1000000014901,2,0.5,,1,2,0.5,1,1,EK,21,W,NA
4,4,6,4,,,,,0,2,3,1,xyzxycd,86,541.2000000029802,5,-0.5,,1,NA,-2.5,2,0,EK,21,W,NA
4,3,4,5,,,,,3,0,1,2,xyzxycd,87,1035.2999999970198,1,0.5,,0,1,0.5,1,0,EK,21,W,NA
4,3,4,5,,,,,3,0,1,2,xyzxycd,87,795.8000000007451,4,0.5,,1,2,-1.5,2,0,EK,21,W,NA
5,3,4,2,,,,,0,2,1,3,xyzxycd,88,1375.199999999255,2,-0.5,,1,2,2.5,1,1,EK,21,W,NA
5,3,4,2,,,,,0,2,1,3,xyzxycd,88,2107.699999999255,5,-0.5,,0,NA,1.5,2,0,EK,21,W,NA
2,4,3,5,,,,,1,0,3,2,xyzxycd,89,828.3000000007451,3,0.5,,1,1,1.5,1,1,EK,21,W,NA
2,4,3,5,,,,,1,0,3,2,xyzxycd,89,1546.5,2,0.5,,1,2,-2.5,2,0,EK,21,W,NA
3,4,4,4,,,,,1,3,2,0,xyzxycd,90,879,5,0.5,,0,NA,-0.5,1,1,EK,21,W,NA
3,4,4,4,,,,,1,3,2,0,xyzxycd,90,973.6000000014901,4,-0.5,,0,2,-0.5,2,1,EK,21,W,NA
5,1,1,3,,,,,0,3,1,2,xyzxycd,91,765.1999999992549,5,-0.5,,1,NA,1.5,1,1,EK,21,W,NA
5,1,1,3,,,,,0,3,1,2,xyzxycd,91,828.3999999985099,1,-0.5,,1,1,3.5,2,1,EK,21,W,NA
3,3,4,3,,,,,2,0,1,3,xyzxycd,92,1408.0999999977648,5,-0.5,,1,NA,-1.5,1,0,EK,21,W,NA
3,3,4,3,,,,,2,0,1,3,xyzxycd,92,715.8000000007451,2,-0.5,,1,2,-0.5,2,0,EK,21,W,NA
1,5,5,6,,,,,2,1,0,3,xyzxycd,93,606.7999999970198,5,0.5,,0,NA,-4.5,1,1,EK,21,W,NA
1,5,5,6,,,,,2,1,0,3,xyzxycd,93,844.9000000022352,4,-0.5,,0,2,-1.5,2,1,EK,21,W,NA
3,5,5,5,,,,,3,2,1,0,xyzxycd,94,1239.300000000745,4,0.5,,0,2,0.5,1,0,EK,21,W,NA
3,5,5,5,,,,,3,2,1,0,xyzxycd,94,665.6999999992549,5,-0.5,,0,NA,-2.5,2,1,EK,21,W,NA
4,1,4,4,,,,,2,3,1,0,xyzxycd,95,988.2999999970198,5,-0.5,,0,NA,-3.5,1,1,EK,21,W,NA
4,1,4,4,,,,,2,3,1,0,xyzxycd,95,910,1,0.5,,0,1,0.5,2,0,EK,21,W,NA
4,0,4,6,,,,,2,1,3,0,xyzxycd,96,383.4000000022352,3,0.5,,0,1,-3.5,1,1,EK,21,W,NA
4,0,4,6,,,,,2,1,3,0,xyzxycd,96,428.5,4,0.5,,0,2,-5.5,2,1,EK,21,W,NA
1,4,4,5,,,,,0,2,1,3,xyzxycd,97,948.1999999992549,3,0.5,,0,1,0.5,1,0,EK,21,W,NA
1,4,4,5,,,,,0,2,1,3,xyzxycd,97,508.5,5,0.5,,0,NA,-3.5,2,1,EK,21,W,NA
4,3,4,3,,,,,3,2,1,0,xyzxycd,98,1082.5999999977648,1,0.5,,0,1,0.5,1,0,EK,21,W,NA
4,3,4,3,,,,,3,2,1,0,xyzxycd,98,730.1000000014901,5,0.5,,0,NA,0.5,2,0,EK,21,W,NA
5,5,2,5,,,,,1,3,0,2,xyzxycd,99,627.2999999970198,5,0.5,,1,NA,3.5,1,1,EK,21,W,NA
5,5,2,5,,,,,1,3,0,2,xyzxycd,99,781.6000000014901,3,-0.5,,1,1,2.5,2,1,EK,21,W,NA
5,5,4,4,,,,,2,1,0,3,xyzxycd,100,748.3999999985099,5,-0.5,,1,NA,1.5,1,1,EK,21,W,NA
5,5,4,4,,,,,2,1,0,3,xyzxycd,100,777.6000000014901,2,0.5,,1,2,1.5,2,1,EK,21,W,NA
4,4,4,3,,,,,0,1,2,3,xyzxycd,101,1358.199999999255,3,-0.5,,0,1,-0.5,1,1,EK,21,W,NA
4,4,4,3,,,,,0,1,2,3,xyzxycd,101,588.6999999992549,1,-0.5,,1,1,-0.5,2,0,EK,21,W,NA
4,3,6,2,,,,,3,0,1,2,xyzxycd,102,484.9000000022352,5,-0.5,,0,NA,-1.5,1,1,EK,21,W,NA
4,3,6,2,,,,,3,0,1,2,xyzxycd,102,907.3999999985099,2,0.5,,1,2,2.5,2,1,EK,21,W,NA
3,1,5,5,,,,,2,0,3,1,xyzxycd,103,1022.2999999970198,1,0.5,,0,1,-1.5,1,1,EK,21,W,NA
3,1,5,5,,,,,2,0,3,1,xyzxycd,103,505.4000000022352,5,-0.5,,0,NA,-6.5,2,1,EK,21,W,NA
5,3,3,4,,,,,2,3,0,1,xyzxycd,104,995.5,4,0.5,,0,2,-0.5,1,1,EK,21,W,NA
5,3,3,4,,,,,2,3,0,1,xyzxycd,104,3036.800000000745,3,0.5,,0,1,0.5,2,0,EK,21,W,NA
4,4,3,4,,,,,3,0,2,1,xyzxycd,105,905.3000000007451,2,0.5,,0,2,0.5,1,0,EK,21,W,NA
4,4,3,4,,,,,3,0,2,1,xyzxycd,105,468.19999999925494,3,0.5,,0,1,1.5,2,0,EK,21,W,NA
2,3,3,6,,,,,1,2,3,0,xyzxycd,106,3975.5,5,-0.5,,1,NA,-4.5,1,0,EK,21,W,NA
2,3,3,6,,,,,1,2,3,0,xyzxycd,106,748.8000000007451,3,0.5,,1,1,0.5,2,1,EK,21,W,NA
3,5,3,4,,,,,0,2,3,1,xyzxycd,107,1867.3999999985099,4,-0.5,,0,2,0.5,1,0,EK,21,W,NA
3,5,3,4,,,,,0,2,3,1,xyzxycd,107,2428,5,0.5,,1,NA,1.5,2,1,EK,21,W,NA
6,3,3,3,,,,,1,2,0,3,xyzxycd,108,1889,5,0.5,,1,NA,3.5,1,1,EK,21,W,NA
6,3,3,3,,,,,1,2,0,3,xyzxycd,108,1052.4000000022352,4,-0.5,,1,2,-0.5,2,0,EK,21,W,NA
6,4,5,4,,,,,1,2,0,3,kvmb8v3,1,6768.40000000014,5,0.5,,1,NA,1.5,1,1,LF,24,W,B
6,4,5,4,,,,,1,2,0,3,kvmb8v3,1,4805.5,4,0.5,,1,2,0.5,2,1,LF,24,W,B
4,2,4,5,,,,,0,1,3,2,kvmb8v3,2,5479.600000000093,3,0.5,,1,1,-1.5,1,0,LF,24,W,B
4,2,4,5,,,,,0,1,3,2,kvmb8v3,2,9191,5,-0.5,,0,NA,-3.5,2,1,LF,24,W,B
5,1,3,2,,,,,1,0,3,2,kvmb8v3,3,3347.5999999998603,5,-0.5,,0,NA,0.5,1,0,LF,24,W,B
5,1,3,2,,,,,1,0,3,2,kvmb8v3,3,4998.600000000093,2,0.5,,1,2,3.5,2,1,LF,24,W,B
2,5,5,3,,,,,0,2,1,3,kvmb8v3,4,2285.3000000000466,5,-0.5,,0,NA,-1.5,1,1,LF,24,W,B
2,5,5,3,,,,,0,2,1,3,kvmb8v3,4,3606.2999999998137,3,0.5,,1,1,0.5,2,1,LF,24,W,B
4,3,4,3,,,,,3,2,0,1,kvmb8v3,5,12948.5,4,0.5,,1,2,0.5,1,1,LF,24,W,B
4,3,4,3,,,,,3,2,0,1,kvmb8v3,5,3511.100000000093,5,0.5,,1,NA,0.5,2,1,LF,24,W,B
5,4,4,5,,,,,0,1,2,3,kvmb8v3,6,2807.399999999907,2,-0.5,,0,2,-0.5,1,1,LF,24,W,B
5,4,4,5,,,,,0,1,2,3,kvmb8v3,6,1275,4,-0.5,,0,2,-1.5,2,1,LF,24,W,B
4,5,3,3,,,,,2,0,3,1,kvmb8v3,7,1322.5,5,-0.5,,0,NA,2.5,1,0,LF,24,W,B
4,5,3,3,,,,,2,0,3,1,kvmb8v3,7,1191.0999999998603,2,-0.5,,0,2,0.5,2,0,LF,24,W,B
4,5,3,5,,,,,2,1,3,0,kvmb8v3,8,1537.9000000001397,3,-0.5,,0,1,1.5,1,0,LF,24,W,B
4,5,3,5,,,,,2,1,3,0,kvmb8v3,8,693.4000000001397,4,-0.5,,0,2,-0.5,2,1,LF,24,W,B
4,4,4,4,,,,,3,1,0,2,kvmb8v3,9,1407,4,0.5,,1,2,0.5,1,1,LF,24,W,B
4,4,4,4,,,,,3,1,0,2,kvmb8v3,9,1013.1999999997206,3,-0.5,,0,1,-0.5,2,1,LF,24,W,B
5,4,2,4,,,,,1,3,2,0,kvmb8v3,10,3605.5,1,0.5,,1,1,3.5,1,1,LF,24,W,B
5,4,2,4,,,,,1,3,2,0,kvmb8v3,10,5287.699999999721,5,-0.5,,1,NA,2.5,2,1,LF,24,W,B
4,3,5,2,,,,,3,2,1,0,kvmb8v3,11,3566.7000000001863,3,0.5,,0,1,-1.5,1,1,LF,24,W,B
4,3,5,2,,,,,3,2,1,0,kvmb8v3,11,1430.1999999997206,1,0.5,,1,1,-0.5,2,0,LF,24,W,B
2,3,5,6,,,,,0,2,3,1,kvmb8v3,12,1248.5,4,0.5,,0,2,-2.5,1,1,LF,24,W,B
2,3,5,6,,,,,0,2,3,1,kvmb8v3,12,4406.5,2,-0.5,,0,2,-4.5,2,1,LF,24,W,B
6,3,3,4,,,,,1,3,0,2,kvmb8v3,13,1343.6000000000931,2,-0.5,,1,2,1.5,1,1,LF,24,W,B
6,3,3,4,,,,,1,3,0,2,kvmb8v3,13,8661.700000000186,5,-0.5,,1,NA,1.5,2,1,LF,24,W,B
4,3,1,2,,,,,1,2,3,0,kvmb8v3,14,1165.4000000003725,5,0.5,,1,NA,4.5,1,1,LF,24,W,B
4,3,1,2,,,,,1,2,3,0,kvmb8v3,14,2262.899999999907,3,0.5,,1,1,2.5,2,1,LF,24,W,B
4,4,2,5,,,,,3,0,1,2,kvmb8v3,15,1017.5,5,-0.5,,1,NA,0.5,1,1,LF,24,W,B
4,4,2,5,,,,,3,0,1,2,kvmb8v3,15,1461.8999999999069,1,-0.5,,1,1,1.5,2,1,LF,24,W,B
4,4,1,4,,,,,2,3,0,1,kvmb8v3,16,1292.7000000001863,1,0.5,,1,1,3.5,1,1,LF,24,W,B
4,4,1,4,,,,,2,3,0,1,kvmb8v3,16,3637.5,2,0.5,,1,2,0.5,2,1,LF,24,W,B
6,2,5,2,,,,,2,3,1,0,kvmb8v3,17,3981.5,3,-0.5,,0,1,-3.5,1,1,LF,24,W,B
6,2,5,2,,,,,2,3,1,0,kvmb8v3,17,1063.1000000000931,5,0.5,,1,NA,1.5,2,1,LF,24,W,B
5,4,3,4,,,,,3,1,2,0,kvmb8v3,18,2316.7999999998137,4,0.5,,1,2,0.5,1,1,LF,24,W,B
5,4,3,4,,,,,3,1,2,0,kvmb8v3,18,1083.2000000001863,1,-0.5,,1,1,1.5,2,1,LF,24,W,B
5,4,5,4,,,,,0,3,1,2,kvmb8v3,19,1312.8999999999069,1,0.5,,1,1,0.5,1,1,LF,24,W,B
5,4,5,4,,,,,0,3,1,2,kvmb8v3,19,2533.600000000093,5,0.5,,1,NA,0.5,2,1,LF,24,W,B
5,4,4,6,,,,,2,0,1,3,kvmb8v3,20,1164.8999999999069,2,0.5,,1,2,-0.5,1,0,LF,24,W,B
5,4,4,6,,,,,2,0,1,3,kvmb8v3,20,3569.2000000001863,5,-0.5,,0,NA,-1.5,2,1,LF,24,W,B
4,3,5,3,,,,,1,0,2,3,kvmb8v3,21,2149.7000000001863,1,0.5,,0,1,-0.5,1,1,LF,24,W,B
4,3,5,3,,,,,1,0,2,3,kvmb8v3,21,4725.700000000186,5,0.5,,1,NA,-0.5,2,0,LF,24,W,B
4,3,2,5,,,,,0,3,2,1,kvmb8v3,22,970.6999999997206,1,0.5,,1,1,2.5,1,1,LF,24,W,B
4,3,2,5,,,,,0,3,2,1,kvmb8v3,22,1864.1999999997206,3,0.5,,1,1,1.5,2,1,LF,24,W,B
3,1,4,4,,,,,3,0,2,1,kvmb8v3,23,2074,5,0.5,,0,NA,-3.5,1,1,LF,24,W,B
3,1,4,4,,,,,3,0,2,1,kvmb8v3,23,1317.8000000002794,4,0.5,,0,2,-2.5,2,1,LF,24,W,B
2,3,2,2,,,,,2,1,0,3,kvmb8v3,24,1236.7999999998137,3,-0.5,,1,1,0.5,1,1,LF,24,W,B
2,3,2,2,,,,,2,1,0,3,kvmb8v3,24,1687,5,0.5,,0,NA,1.5,2,0,LF,24,W,B
5,3,3,0,,,,,2,1,0,3,kvmb8v3,25,1220.7000000001863,5,0.5,,1,NA,5.5,1,1,LF,24,W,B
5,3,3,0,,,,,2,1,0,3,kvmb8v3,25,1639.6999999997206,2,0.5,,1,2,5.5,2,1,LF,24,W,B
5,4,5,5,,,,,3,2,1,0,kvmb8v3,26,3388.7999999998137,3,-0.5,,0,1,-1.5,1,1,LF,24,W,B
5,4,5,5,,,,,3,2,1,0,kvmb8v3,26,3303.3000000002794,2,-0.5,,1,2,-0.5,2,0,LF,24,W,B
2,6,5,4,,,,,0,2,3,1,kvmb8v3,27,1796.6000000000931,1,0.5,,0,1,-2.5,1,1,LF,24,W,B
2,6,5,4,,,,,0,2,3,1,kvmb8v3,27,917.2000000001863,4,-0.5,,1,2,1.5,2,1,LF,24,W,B
2,4,6,2,,,,,0,1,2,3,kvmb8v3,28,3274.600000000093,5,-0.5,,0,NA,-2.5,1,1,LF,24,W,B
2,4,6,2,,,,,0,1,2,3,kvmb8v3,28,3461.6999999997206,4,0.5,,1,2,2.5,2,1,LF,24,W,B
4,2,2,3,,,,,0,2,1,3,kvmb8v3,29,2550.5,5,0.5,,1,NA,1.5,1,1,LF,24,W,B
4,2,2,3,,,,,0,2,1,3,kvmb8v3,29,3767.2999999998137,3,0.5,,1,1,0.5,2,1,LF,24,W,B
3,3,5,3,,,,,1,0,3,2,kvmb8v3,30,1328.6000000000931,5,0.5,,0,NA,-1.5,1,1,LF,24,W,B
3,3,5,3,,,,,1,0,3,2,kvmb8v3,30,1524,1,-0.5,,0,1,-2.5,2,1,LF,24,W,B
3,3,4,4,,,,,2,0,1,3,kvmb8v3,31,3046.7000000001863,4,-0.5,,0,2,-1.5,1,1,LF,24,W,B
3,3,4,4,,,,,2,0,1,3,kvmb8v3,31,1798.8999999999069,5,-0.5,,0,NA,-2.5,2,1,LF,24,W,B
5,2,5,3,,,,,1,3,0,2,kvmb8v3,32,1247.3000000002794,2,0.5,,1,2,2.5,1,1,LF,24,W,B
5,2,5,3,,,,,1,3,0,2,kvmb8v3,32,1463.0999999996275,3,-0.5,,0,1,-3.5,2,1,LF,24,W,B
5,5,5,4,,,,,2,0,3,1,kvmb8v3,33,1533.8000000002794,2,0.5,,1,2,1.5,1,1,LF,24,W,B
5,5,5,4,,,,,2,0,3,1,kvmb8v3,33,1557.6000000000931,5,0.5,,1,NA,1.5,2,1,LF,24,W,B
5,3,5,5,,,,,0,1,3,2,kvmb8v3,34,3259.8000000002794,4,-0.5,,0,2,-2.5,1,1,LF,24,W,B
5,3,5,5,,,,,0,1,3,2,kvmb8v3,34,2818.600000000093,5,-0.5,,0,NA,-2.5,2,1,LF,24,W,B
5,4,4,4,,,,,3,2,0,1,kvmb8v3,35,3994.2999999998137,2,-0.5,,0,2,0.5,1,0,LF,24,W,B
5,4,4,4,,,,,3,2,0,1,kvmb8v3,35,2630.899999999907,1,0.5,,1,1,1.5,2,1,LF,24,W,B
6,2,3,4,,,,,0,3,1,2,kvmb8v3,36,3146.2999999998137,5,-0.5,,0,NA,0.5,1,0,LF,24,W,B
6,2,3,4,,,,,0,3,1,2,kvmb8v3,36,5317.700000000186,1,-0.5,,1,1,2.5,2,1,LF,24,W,B
4,5,4,4,,,,,3,1,2,0,kvmb8v3,37,2864.6999999997206,3,0.5,,1,1,1.5,1,1,LF,24,W,B
4,5,4,4,,,,,3,1,2,0,kvmb8v3,37,1366.6000000000931,5,0.5,,1,NA,1.5,2,1,LF,24,W,B
2,6,2,3,,,,,1,0,2,3,kvmb8v3,38,1180.9000000003725,3,0.5,,1,1,4.5,1,1,LF,24,W,B
2,6,2,3,,,,,1,0,2,3,kvmb8v3,38,1861.8999999999069,5,-0.5,,1,NA,2.5,2,1,LF,24,W,B
3,6,3,3,,,,,1,2,0,3,kvmb8v3,39,1147.8000000002794,3,-0.5,,1,1,2.5,1,1,LF,24,W,B
3,6,3,3,,,,,1,2,0,3,kvmb8v3,39,4693,2,-0.5,,0,2,-0.5,2,1,LF,24,W,B
3,3,5,2,,,,,0,3,2,1,kvmb8v3,40,3436.600000000093,5,-0.5,,0,NA,-1.5,1,1,LF,24,W,B
3,3,5,2,,,,,0,3,2,1,kvmb8v3,40,1397.9000000003725,4,-0.5,,1,2,0.5,2,1,LF,24,W,B
5,3,4,4,,,,,3,0,1,2,kvmb8v3,41,1903.7000000001863,4,0.5,,1,2,-0.5,1,0,LF,24,W,B
5,3,4,4,,,,,3,0,1,2,kvmb8v3,41,1701.9000000003725,5,-0.5,,1,NA,-0.5,2,0,LF,24,W,B
5,3,3,4,,,,,2,3,1,0,kvmb8v3,42,2492.399999999907,5,-0.5,,1,NA,0.5,1,1,LF,24,W,B
5,3,3,4,,,,,2,3,1,0,kvmb8v3,42,1386.8999999999069,2,-0.5,,1,2,0.5,2,1,LF,24,W,B
4,2,5,3,,,,,3,1,0,2,kvmb8v3,43,1511.7999999998137,3,-0.5,,0,1,-3.5,1,1,LF,24,W,B
4,2,5,3,,,,,3,1,0,2,kvmb8v3,43,3861.8000000002794,1,-0.5,,0,1,-1.5,2,1,LF,24,W,B
3,4,3,5,,,,,2,3,0,1,kvmb8v3,44,1386.6000000000931,2,0.5,,1,2,-1.5,1,0,LF,24,W,B
3,4,3,5,,,,,2,3,0,1,kvmb8v3,44,1637.9000000003725,3,0.5,,0,1,1.5,2,0,LF,24,W,B
4,3,5,4,,,,,1,3,2,0,kvmb8v3,45,3452.7999999998137,1,0.5,,1,1,-0.5,1,0,LF,24,W,B
4,3,5,4,,,,,1,3,2,0,kvmb8v3,45,2917.8000000002794,5,-0.5,,1,NA,-2.5,2,0,LF,24,W,B
3,4,3,3,,,,,3,0,2,1,kvmb8v3,46,2369.5,5,0.5,,1,NA,1.5,1,1,LF,24,W,B
3,4,3,3,,,,,3,0,2,1,kvmb8v3,46,2598.399999999907,1,-0.5,,0,1,-0.5,2,1,LF,24,W,B
1,4,5,2,,,,,1,2,3,0,kvmb8v3,47,1212.8999999999069,4,0.5,,1,2,2.5,1,1,LF,24,W,B
1,4,5,2,,,,,1,2,3,0,kvmb8v3,47,4262.899999999907,3,-0.5,,0,1,-1.5,2,1,LF,24,W,B
3,3,4,4,,,,,2,1,3,0,kvmb8v3,48,1359.5999999996275,2,-0.5,,0,2,-1.5,1,1,LF,24,W,B
3,3,4,4,,,,,2,1,3,0,kvmb8v3,48,2148.8000000002794,5,0.5,,0,NA,-1.5,2,1,LF,24,W,B
4,6,4,2,,,,,0,1,3,2,kvmb8v3,49,1132.0999999996275,4,0.5,,1,2,4.5,1,1,LF,24,W,B
4,6,4,2,,,,,0,1,3,2,kvmb8v3,49,1029.6000000000931,5,0.5,,1,NA,4.5,2,1,LF,24,W,B
4,4,4,4,,,,,3,0,1,2,kvmb8v3,50,3923.600000000093,5,-0.5,,1,NA,-0.5,1,0,LF,24,W,B
4,4,4,4,,,,,3,0,1,2,kvmb8v3,50,5685.100000000093,4,-0.5,,0,2,-0.5,2,1,LF,24,W,B
3,4,2,5,,,,,2,0,1,3,kvmb8v3,51,1095.7999999998137,1,-0.5,,1,1,0.5,1,1,LF,24,W,B
3,4,2,5,,,,,2,0,1,3,kvmb8v3,51,2549.100000000093,2,-0.5,,0,2,-2.5,2,1,LF,24,W,B
3,4,3,4,,,,,1,0,3,2,kvmb8v3,52,2961.5,5,0.5,,1,NA,0.5,1,1,LF,24,W,B
3,4,3,4,,,,,1,0,3,2,kvmb8v3,52,4075.5,3,0.5,,1,1,1.5,2,1,LF,24,W,B
2,2,6,4,,,,,3,0,2,1,kvmb8v3,53,2176.5,1,-0.5,,0,1,-4.5,1,1,LF,24,W,B
2,2,6,4,,,,,3,0,2,1,kvmb8v3,53,1239.1000000000931,5,-0.5,,0,NA,-6.5,2,1,LF,24,W,B
6,4,3,6,,,,,1,2,0,3,kvmb8v3,54,2367.5,5,-0.5,,1,NA,0.5,1,1,LF,24,W,B
6,4,3,6,,,,,1,2,0,3,kvmb8v3,54,1126.8000000002794,1,-0.5,,1,1,2.5,2,1,LF,24,W,B
4,4,3,5,,,,,0,3,1,2,kvmb8v3,55,1137.5,5,0.5,,1,NA,0.5,1,1,LF,24,W,B
4,4,3,5,,,,,0,3,1,2,kvmb8v3,55,790.5999999996275,1,-0.5,,1,1,0.5,2,1,LF,24,W,B
4,4,3,6,,,,,3,1,2,0,kvmb8v3,56,1245.7999999998137,3,-0.5,,1,1,0.5,1,1,LF,24,W,B
4,4,3,6,,,,,3,1,2,0,kvmb8v3,56,2356.5,4,-0.5,,0,2,-2.5,2,1,LF,24,W,B
4,4,4,3,,,,,1,3,2,0,kvmb8v3,57,3061.1999999997206,5,-0.5,,0,NA,0.5,1,0,LF,24,W,B
4,4,4,3,,,,,1,3,2,0,kvmb8v3,57,1366.6000000000931,3,0.5,,1,1,0.5,2,1,LF,24,W,B
3,5,3,1,,,,,2,1,0,3,kvmb8v3,58,1650.8999999999069,1,-0.5,,0,1,-0.5,1,1,LF,24,W,B
3,5,3,1,,,,,2,1,0,3,kvmb8v3,58,4789.699999999721,3,-0.5,,0,1,1.5,2,0,LF,24,W,B
4,5,4,4,,,,,1,3,0,2,kvmb8v3,59,1923.3999999999069,1,0.5,,1,1,0.5,1,1,LF,24,W,B
4,5,4,4,,,,,1,3,0,2,kvmb8v3,59,3013.5,5,-0.5,,1,NA,0.5,2,1,LF,24,W,B
3,4,2,4,,,,,0,3,2,1,kvmb8v3,60,1543.6000000000931,5,0.5,,1,NA,1.5,1,1,LF,24,W,B
3,4,2,4,,,,,0,3,2,1,kvmb8v3,60,2565.399999999907,2,-0.5,,0,2,-1.5,2,1,LF,24,W,B
4,2,3,4,,,,,1,0,2,3,kvmb8v3,61,2748.600000000093,5,-0.5,,1,NA,-1.5,1,0,LF,24,W,B
4,2,3,4,,,,,1,0,2,3,kvmb8v3,61,1239.1000000000931,2,-0.5,,1,2,-0.5,2,0,LF,24,W,B
2,4,3,3,,,,,3,1,0,2,kvmb8v3,62,2379.2999999998137,3,-0.5,,0,1,0.5,1,0,LF,24,W,B
2,4,3,3,,,,,3,1,0,2,kvmb8v3,62,950.1999999997206,5,-0.5,,0,NA,-0.5,2,1,LF,24,W,B
4,4,4,4,,,,,0,2,1,3,kvmb8v3,63,1726.7999999998137,4,0.5,,1,2,0.5,1,1,LF,24,W,B
4,4,4,4,,,,,0,2,1,3,kvmb8v3,63,1669.7999999998137,5,-0.5,,0,NA,-0.5,2,1,LF,24,W,B
3,2,4,1,,,,,2,1,3,0,kvmb8v3,64,3944.399999999907,5,0.5,,1,NA,0.5,1,1,LF,24,W,B
3,2,4,1,,,,,2,1,3,0,kvmb8v3,64,4869.600000000093,3,-0.5,,0,1,-2.5,2,1,LF,24,W,B
4,2,6,5,,,,,3,2,1,0,kvmb8v3,65,1296.5,2,0.5,,1,2,-0.5,1,0,LF,24,W,B
4,2,6,5,,,,,3,2,1,0,kvmb8v3,65,3861.5,5,0.5,,0,NA,-4.5,2,1,LF,24,W,B
3,2,2,5,,,,,2,3,1,0,kvmb8v3,66,1722.5,5,0.5,,0,NA,-1.5,1,1,LF,24,W,B
3,2,2,5,,,,,2,3,1,0,kvmb8v3,66,1269.6000000000931,4,-0.5,,0,2,-3.5,2,1,LF,24,W,B
1,4,3,3,,,,,0,2,3,1,kvmb8v3,67,5224.700000000186,2,-0.5,,0,2,-2.5,1,1,LF,24,W,B
1,4,3,3,,,,,0,2,3,1,kvmb8v3,67,3461.600000000093,1,0.5,,0,1,-1.5,2,1,LF,24,W,B
3,4,4,4,,,,,3,2,0,1,kvmb8v3,68,2788.100000000093,1,-0.5,,0,1,-1.5,1,1,LF,24,W,B
3,4,4,4,,,,,3,2,0,1,kvmb8v3,68,1542.7999999998137,4,-0.5,,1,2,-0.5,2,0,LF,24,W,B
3,2,6,3,,,,,0,1,2,3,kvmb8v3,69,3565.5,2,-0.5,,1,2,-0.5,1,0,LF,24,W,B
3,2,6,3,,,,,0,1,2,3,kvmb8v3,69,2997.5,5,0.5,,0,NA,-3.5,2,1,LF,24,W,B
5,5,4,5,,,,,1,2,3,0,kvmb8v3,70,2303.6999999997206,2,0.5,,1,2,0.5,1,1,LF,24,W,B
5,5,4,5,,,,,1,2,3,0,kvmb8v3,70,4004.7000000001863,4,-0.5,,0,2,-0.5,2,1,LF,24,W,B
5,3,5,0,,,,,2,3,0,1,kvmb8v3,71,3368.899999999907,4,-0.5,,1,2,2.5,1,1,LF,24,W,B
5,3,5,0,,,,,2,3,0,1,kvmb8v3,71,1213.1000000000931,1,-0.5,,1,1,-0.5,2,0,LF,24,W,B
4,4,4,2,,,,,2,0,3,1,kvmb8v3,72,2617.2999999998137,4,-0.5,,1,2,1.5,1,1,LF,24,W,B
4,4,4,2,,,,,2,0,3,1,kvmb8v3,72,949.8999999999069,2,-0.5,,1,2,1.5,2,1,LF,24,W,B
5,3,3,4,,,,,3,1,2,0,kvmb8v3,73,1319.3000000002794,2,-0.5,,1,2,0.5,1,1,LF,24,W,B
5,3,3,4,,,,,3,1,2,0,kvmb8v3,73,3093.899999999907,4,0.5,,1,2,-0.5,2,0,LF,24,W,B
3,3,2,4,,,,,3,1,0,2,kvmb8v3,74,1550.2000000001863,5,0.5,,1,NA,0.5,1,1,LF,24,W,B
3,3,2,4,,,,,3,1,0,2,kvmb8v3,74,1512.3999999999069,1,0.5,,1,1,1.5,2,1,LF,24,W,B
5,3,3,2,,,,,1,2,3,0,kvmb8v3,75,1173.5,3,-0.5,,1,1,-0.5,1,0,LF,24,W,B
5,3,3,2,,,,,1,2,3,0,kvmb8v3,75,696.5,5,0.5,,1,NA,3.5,2,1,LF,24,W,B
3,3,5,5,,,,,2,1,3,0,kvmb8v3,76,1875.7000000001863,1,0.5,,0,1,-1.5,1,1,LF,24,W,B
3,3,5,5,,,,,2,1,3,0,kvmb8v3,76,790.7999999998137,2,0.5,,0,2,-1.5,2,1,LF,24,W,B
2,0,4,3,,,,,1,0,2,3,kvmb8v3,77,1328.7000000001863,2,0.5,,0,2,-0.5,1,1,LF,24,W,B
2,0,4,3,,,,,1,0,2,3,kvmb8v3,77,644.7000000001863,1,-0.5,,0,1,-2.5,2,1,LF,24,W,B
4,2,2,4,,,,,3,2,0,1,kvmb8v3,78,1087.6000000005588,1,0.5,,1,1,2.5,1,1,LF,24,W,B
4,2,2,4,,,,,3,2,0,1,kvmb8v3,78,1414.7999999998137,3,-0.5,,0,1,-0.5,2,1,LF,24,W,B
5,5,3,3,,,,,1,0,3,2,kvmb8v3,79,1069.5999999996275,3,0.5,,1,1,2.5,1,1,LF,24,W,B
5,5,3,3,,,,,1,0,3,2,kvmb8v3,79,1062,5,-0.5,,1,NA,3.5,2,1,LF,24,W,B
3,2,6,4,,,,,2,3,0,1,kvmb8v3,80,2128.5,1,-0.5,,0,1,-3.5,1,1,LF,24,W,B
3,2,6,4,,,,,2,3,0,1,kvmb8v3,80,1157.699999999255,5,0.5,,0,NA,-4.5,2,1,LF,24,W,B
5,5,3,3,,,,,0,1,3,2,kvmb8v3,81,1431.9000000003725,4,-0.5,,1,2,1.5,1,1,LF,24,W,B
5,5,3,3,,,,,0,1,3,2,kvmb8v3,81,1413.5,1,-0.5,,1,1,1.5,2,1,LF,24,W,B
4,1,6,5,,,,,0,3,1,2,kvmb8v3,82,1049.2999999998137,2,0.5,,0,2,-0.5,1,1,LF,24,W,B
4,1,6,5,,,,,0,3,1,2,kvmb8v3,82,1717.7999999998137,5,0.5,,0,NA,-5.5,2,1,LF,24,W,B
5,4,4,6,,,,,1,3,2,0,kvmb8v3,83,2416.600000000559,4,0.5,,0,2,-1.5,1,1,LF,24,W,B
5,4,4,6,,,,,1,3,2,0,kvmb8v3,83,2245,2,0.5,,0,2,-0.5,2,1,LF,24,W,B
5,2,3,4,,,,,2,0,3,1,kvmb8v3,84,1861.5,5,0.5,,0,NA,0.5,1,0,LF,24,W,B
5,2,3,4,,,,,2,0,3,1,kvmb8v3,84,2396.7999999998137,3,-0.5,,0,1,-1.5,2,1,LF,24,W,B
4,4,6,4,,,,,1,2,0,3,kvmb8v3,85,2379.2999999998137,4,0.5,,1,2,0.5,1,1,LF,24,W,B
4,4,6,4,,,,,1,2,0,3,kvmb8v3,85,1046.6000000005588,5,0.5,,0,NA,-1.5,2,1,LF,24,W,B
4,4,6,4,,,,,0,1,2,3,kvmb8v3,86,1723.7000000001863,2,0.5,,1,2,0.5,1,1,LF,24,W,B
4,4,6,4,,,,,0,1,2,3,kvmb8v3,86,1043.7999999998137,5,-0.5,,0,NA,-2.5,2,1,LF,24,W,B
4,3,4,5,,,,,2,3,1,0,kvmb8v3,87,1487.4000000003725,1,0.5,,1,1,0.5,1,1,LF,24,W,B
4,3,4,5,,,,,2,3,1,0,kvmb8v3,87,1217.3999999994412,4,0.5,,0,2,-1.5,2,1,LF,24,W,B
5,3,4,2,,,,,3,0,1,2,kvmb8v3,88,2368.7999999998137,2,-0.5,,1,2,2.5,1,1,LF,24,W,B
5,3,4,2,,,,,3,0,1,2,kvmb8v3,88,2774.399999999441,5,-0.5,,1,NA,1.5,2,1,LF,24,W,B
2,4,3,5,,,,,3,0,2,1,kvmb8v3,89,1297.7000000001863,3,0.5,,1,1,1.5,1,1,LF,24,W,B
2,4,3,5,,,,,3,0,2,1,kvmb8v3,89,885.8000000007451,2,0.5,,0,2,-2.5,2,1,LF,24,W,B
3,4,4,4,,,,,1,3,0,2,kvmb8v3,90,2023.2999999998137,5,0.5,,0,NA,-0.5,1,1,LF,24,W,B
3,4,4,4,,,,,1,3,0,2,kvmb8v3,90,2036.7999999998137,4,-0.5,,0,2,-0.5,2,1,LF,24,W,B
5,1,1,3,,,,,0,2,3,1,kvmb8v3,91,2408.4000000003725,5,-0.5,,0,NA,1.5,1,0,LF,24,W,B
5,1,1,3,,,,,0,2,3,1,kvmb8v3,91,1205.7999999998137,1,-0.5,,1,1,3.5,2,1,LF,24,W,B
3,3,4,3,,,,,0,2,1,3,kvmb8v3,92,5012.299999999814,5,-0.5,,0,NA,-1.5,1,1,LF,24,W,B
3,3,4,3,,,,,0,2,1,3,kvmb8v3,92,2341.7000000001863,2,-0.5,,1,2,-0.5,2,0,LF,24,W,B
1,5,5,6,,,,,2,1,0,3,kvmb8v3,93,1377,5,0.5,,0,NA,-4.5,1,1,LF,24,W,B
1,5,5,6,,,,,2,1,0,3,kvmb8v3,93,3957.7999999998137,4,-0.5,,0,2,-1.5,2,1,LF,24,W,B
3,5,5,5,,,,,3,2,1,0,kvmb8v3,94,1862,4,0.5,,1,2,0.5,1,1,LF,24,W,B
3,5,5,5,,,,,3,2,1,0,kvmb8v3,94,1302.6000000005588,5,-0.5,,0,NA,-2.5,2,1,LF,24,W,B
4,1,4,4,,,,,0,3,2,1,kvmb8v3,95,1598.8999999994412,5,-0.5,,0,NA,-3.5,1,1,LF,24,W,B
4,1,4,4,,,,,0,3,2,1,kvmb8v3,95,1397.6000000005588,1,0.5,,1,1,0.5,2,1,LF,24,W,B
4,0,4,6,,,,,2,0,1,3,kvmb8v3,96,2398.7999999998137,3,0.5,,0,1,-3.5,1,1,LF,24,W,B
4,0,4,6,,,,,2,0,1,3,kvmb8v3,96,982.4000000003725,4,0.5,,0,2,-5.5,2,1,LF,24,W,B
1,4,4,5,,,,,3,1,0,2,kvmb8v3,97,2846.5,3,0.5,,1,1,0.5,1,1,LF,24,W,B
1,4,4,5,,,,,3,1,0,2,kvmb8v3,97,1126.6000000005588,5,0.5,,0,NA,-3.5,2,1,LF,24,W,B
4,3,4,3,,,,,2,0,3,1,kvmb8v3,98,1527.5,1,0.5,,1,1,0.5,1,1,LF,24,W,B
4,3,4,3,,,,,2,0,3,1,kvmb8v3,98,1812.6000000005588,5,0.5,,1,NA,0.5,2,1,LF,24,W,B
5,5,2,5,,,,,3,0,1,2,kvmb8v3,99,1358.0999999996275,5,0.5,,1,NA,3.5,1,1,LF,24,W,B
5,5,2,5,,,,,3,0,1,2,kvmb8v3,99,1861.0999999996275,3,-0.5,,1,1,2.5,2,1,LF,24,W,B
5,5,4,4,,,,,2,0,1,3,kvmb8v3,100,2676.9000000003725,5,-0.5,,1,NA,1.5,1,1,LF,24,W,B
5,5,4,4,,,,,2,0,1,3,kvmb8v3,100,1625,2,0.5,,1,2,1.5,2,1,LF,24,W,B
4,4,4,3,,,,,1,3,2,0,kvmb8v3,101,3725.2000000001863,3,-0.5,,1,1,-0.5,1,0,LF,24,W,B
